timestamp	accel_x	accel_y	accel_z	accel_mag	temperature	mag_x	mag_y	mag_z	azimuth	pitch	roll
1448132880890	-1.0030059814453125	7.47882080078125	5.95806884765625	-6.28042875245796	0	-7.116699	-15.736389	-36.75995	34.0531	-49.574512	-9.735335
1448132880932	-1.0030059814453125	7.47882080078125	5.95806884765625	-6.28042875245796	0	-7.116699	-15.736389	-36.75995	34.0531	-49.574512	-9.735335
1448132880972	-1.4588470458984375	7.334808349609375	5.264190673828125	-6.468913379369018	0	-8.166504	-14.987183	-35.710144	34.669556	-49.229706	-9.33918
1448132881014	-1.4981231689453125	7.33837890625	6.197296142578125	-6.337082471598851	0	-8.91571	-13.1866455	-36.309814	36.375183	-45.636395	-7.994135
1448132881055	-2.2360382080078125	7.677581787109375	6.14849853515625	-6.402184908643217	0	-9.666443	-11.987305	-37.05902	36.723328	-44.385597	-7.288128
1448132881096	-0.2222442626953125	7.30743408203125	7.57672119140625	-5.977512509390495	0	-11.766052	-9.437561	-37.05902	36.864502	-41.900345	-4.6449122
1448132881136	0.0955352783203125	5.89111328125	8.173004150390625	-6.043668601480896	0	-12.666321	-7.0373535	-36.909485	36.32547	-40.041046	-2.492633
1448132881176	0.7287139892578125	5.194854736328125	8.118255615234375	-6.059357768595642	0	-13.265991	-6.286621	-37.210083	35.382263	-38.411522	-0.87706894
1448132881216	1.6011199951171875	5.16986083984375	7.5648193359375	-6.02033532741061	0	-13.566589	-5.6869507	-37.35962	33.72763	-38.319927	0.54669154
1448132881257	1.1369476318359375	4.873504638671875	7.074462890625	-6.189292277240874	0	-13.116455	-6.587219	-37.35962	32.588684	-38.839943	1.0391012
1448132881297	-0.2996063232421875	6.1243896484375	7.550537109375	-6.149371481767879	0	-12.965393	-5.2368164	-37.210083	33.368378	-37.570423	0.33442333
1448132881337	1.0643463134765625	6.199371337890625	8.080169677734375	-5.889472566650204	0	-13.415527	-4.336548	-37.509155	33.6315	-36.377895	0.14385247
1448132881378	0.2383575439453125	4.754486083984375	7.760009765625	-6.2354862530640816	0	-13.7161255	-3.4362793	-37.809753	34.28528	-35.90385	0.20093262
1448132881418	0.7061004638671875	5.587615966796875	8.2646484375	-5.991057460836786	0	-14.16626	-4.486084	-37.660217	34.939545	-34.385708	1.2672427
1448132881458	0.3490447998046875	4.891357421875	8.372955322265625	-6.116971625224931	0	-15.666199	-3.2867432	-37.210083	35.863007	-33.76172	2.2464552
1448132881499	-2.6180877685546875	3.8011474609375	8.4027099609375	-6.710510586995214	0	-16.116333	-1.9363403	-36.909485	36.572205	-33.97281	3.3827932
1448132881539	0.6073150634765625	5.306732177734375	8.18133544921875	-6.052218201297357	0	-18.215942	-3.7368774	-36.608887	36.277008	-34.560024	6.074428
1448132881579	1.1667022705078125	4.944915771484375	6.728118896484375	-6.223342133410356	0	-19.715881	-3.7368774	-35.559082	35.575348	-35.80072	9.383735
1448132881620	0.1717071533203125	5.140106201171875	6.597198486328125	-6.355656383998673	0	-19.715881	-3.137207	-35.108948	34.37906	-37.172108	11.554441
1448132881660	2.2057342529296875	6.24578857421875	5.85809326171875	-6.023794680020238	0	-20.765686	-3.2867432	-34.66034	32.939606	-38.34424	14.210479
1448132881700	3.8362884521484375	6.461212158203125	7.042327880859375	-5.642488030898912	0	-22.265625	-3.8864136	-33.909607	31.866547	-39.07701	17.180826
1448132881741	3.7434539794921875	6.23150634765625	8.19085693359375	-5.544462360183309	0	-23.016357	-2.6870728	-33.459473	30.346832	-39.10319	20.021395
1448132881781	3.1947784423828125	5.292449951171875	8.39080810546875	-5.698311244444539	0	-23.616028	-1.3366699	-32.710266	29.310211	-39.24139	21.567598
1448132881821	3.5732574462890625	4.8961181640625	6.32940673828125	-5.95968144762164	0	-24.815369	-0.5874634	-32.409668	27.511292	-39.94244	26.7125
1448132881862	8.857681274414063	4.621185302734375	4.314422607421875	-5.588390760930616	0	-27.06604	1.9638062	-30.60913	23.565552	-39.289345	33.724697
1448132881902	7.3282928466796875	3.625	6.844757080078125	-5.587826490227543	0	-27.215576	1.8127441	-30.00946	22.571533	-38.80814	35.345325
1448132881942	6.7379608154296875	3.799957275390625	7.531494140625	-5.81632212685848	0	-27.66571	2.2628784	-30.158997	21.318298	-38.18064	37.28017
1448132881983	6.3785247802734375	5.028228759765625	6.350830078125	-5.592625199628732	0	-26.46637	3.0136108	-30.310059	19.29419	-37.404068	37.20696
1448132882023	5.3680572509765625	4.65570068359375	5.408203125	-5.878246520541931	0	-26.916504	4.2129517	-30.60913	17.71933	-37.618744	37.542835
1448132882063	4.7301177978515625	6.2005615234375	5.642669677734375	-5.7355621717523375	0	-26.916504	3.163147	-30.459595	16.274994	-37.973186	38.686066
1448132882104	5.2799835205078125	7.015838623046875	4.72503662109375	-5.680965653060315	0	-27.815247	0.01373291	-30.00946	15.991058	-43.295063	41.082253
1448132882144	3.6018218994140625	9.279571533203125	1.5758056640625	-6.004337634423462	0	-27.815247	-2.836609	-29.708862	17.26361	-49.659466	40.05731
1448132882185	3.7684478759765625	6.68853759765625	5.445098876953125	-5.818858239230385	0	-30.215454	-7.1868896	-26.409912	25.320679	-57.659172	39.392662
1448132882225	2.8436737060546875	4.704498291015625	8.399139404296875	-5.8131915058227275	0	-31.115723	-7.936096	-24.909973	32.389435	-65.27431	37.434822
1448132882266	5.0002899169921875	6.51239013671875	6.494842529296875	-5.563072860578383	0	-29.466248	-12.286377	-24.459839	32.22043	-70.74872	33.63
1448132882306	5.7536773681640625	7.0003662109375	4.0609130859375	-5.705995573206424	0	-26.916504	-18.586731	-24.459839	31.757568	-73.290695	31.315578
1448132882347	9.143325805664063	6.700439453125	3.683624267578125	-5.387619401901929	0	-26.46637	-22.636414	-22.509766	36.33438	-78.75001	24.934576
1448132882388	9.154037475585938	5.93157958984375	3.19683837890625	-5.530801192252383	0	-25.416565	-21.736145	-22.9599	37.397614	-78.00467	22.52991
1448132882429	9.498001098632813	6.4957275390625	-0.332061767578125	-5.8491176096263935	0	-24.516296	-21.887207	-23.55957	33.441772	-75.72435	22.377129
1448132882469	11.614151000976563	9.408111572265625	3.51104736328125	-4.853488862894005	0	-24.066162	-22.636414	-24.310303	30.906525	-75.53202	23.92644
1448132882509	6.6867828369140625	9.015350341796875	-2.31610107421875	-6.1479073230329675	0	-25.416565	-22.18628	-22.059631	29.419922	-78.96292	26.145927
1448132882550	4.9050750732421875	7.970367431640625	-1.367523193359375	-6.382489446724202	0	-27.966309	-21.736145	-20.410156	29.757355	-82.39878	29.626404
1448132882591	3.1959686279296875	7.215789794921875	0.934295654296875	-6.438209571746701	0	-29.16565	-20.986938	-19.509888	32.315277	-84.70764	32.597298
1448132882631	4.8872222900390625	8.817779541015625	-0.30230712890625	-6.145630906693087	0	-32.61566	-21.287537	-14.859009	35.596985	-90.270836	35.670746
1448132882671	5.0181427001953125	6.671875	-0.35943603515625	-6.440507062328928	0	-33.215332	-19.937134	-11.859131	42.7164	-95.97389	37.506386
1448132882712	5.6322784423828125	6.433837890625	-1.774566650390625	-6.598555473716552	0	-33.51593	-19.937134	-11.25946	45.379242	-98.124176	37.82049
1448132882752	7.1592864990234375	7.460968017578125	-1.998321533203125	-6.253864014397012	0	-33.966064	-19.036865	-9.458923	48.001495	-102.74014	39.24711
1448132882792	8.105484008789063	8.313140869140625	-1.962615966796875	-6.00449414782639	0	-34.4162	-18.286133	-8.709717	49.65738	-105.94996	40.550655
1448132882833	8.220932006835938	7.430023193359375	-2.443450927734375	-6.172386980313215	0	-35.316467	-16.636658	-7.0602417	53.10663	-110.83242	42.24197
1448132882873	8.971939086914063	8.820159912109375	-1.742431640625	-5.800396390796089	0	-36.216736	-17.536926	-6.159973	53.768555	-112.26118	42.918797
1448132882913	8.355422973632813	5.995849609375	-4.48223876953125	-6.665098159561805	0	-35.7666	-17.38739	-8.2595825	49.33029	-112.293846	45.65414
1448132882954	13.347061157226563	5.337677001953125	-1.3663330078125	-5.6450612039094015	0	-35.165405	-16.636658	-8.859253	48.028076	-112.21751	46.072697
1448132882994	5.3966217041015625	4.254608154296875	-6.02947998046875	-7.903510438804918	0	-32.01599	-22.937012	-7.510376	43.516846	-110.82116	38.318604
1448132883034	7.6496429443359375	4.1058349609375	-5.216583251953125	-7.249473751000879	0	-27.06604	-28.486633	-8.110046	41.043274	-108.22259	28.569853
1448132883075	1.2047882080078125	2.42291259765625	3.052825927734375	-7.221928505709393	0	-21.81549	-33.88672	-8.110046	40.049347	-106.12629	23.01433
1448132883115	-0.1246490478515625	3.6964111328125	-1.841217041015625	-8.491098177901181	0	-15.666199	-36.286926	-8.409119	37.08429	-103.20804	6.835372
1448132883156	-0.8066253662109375	3.602386474609375	-4.326324462890625	NaN	0	-12.815857	-38.537598	-8.2595825	36.107452	-103.496895	2.0061307
1448132883196	-28.577224731445313	38.94256591796875	1.981658935546875	-6.29277016318799	0	-6.965637	-40.637207	-8.709717	39.249054	-100.48057	-12.421819
1448132883237	0.1800384521484375	5.606658935546875	-1.853118896484375	-7.82327489018796	0	-8.166504	-38.83667	-7.8094482	42.888824	-99.76385	-13.610622
1448132883277	-5.8268280029296875	8.74993896484375	-3.026641845703125	NaN	0	-7.865906	-40.486145	-6.3095093	49.69641	-100.4863	-14.475886
1448132883317	-4.4009857177734375	8.738037109375	-1.7138671875	-8.186975289117395	0	-7.4157715	-39.886475	-6.6101074	49.54071	-100.91908	-15.852384
1448132883358	-1.7920989990234375	9.34027099609375	-1.388946533203125	-7.324821310457519	0	-7.5653076	-40.786743	-6.159973	49.55124	-101.381	-15.907761
1448132883398	-2.9013519287109375	9.262908935546875	-2.3375244140625	-7.751077207570951	0	-7.7163696	-40.486145	-5.709839	49.021698	-102.13013	-15.7929735
1448132883438	-2.5740509033203125	9.477142333984375	-2.22802734375	-7.644410348994782	0	-7.116699	-40.187073	-5.709839	48.45688	-102.74688	-15.676237
1448132883479	-2.6228485107421875	9.37359619140625	-1.991180419921875	-7.624956752183761	0	-7.7163696	-40.486145	-5.2597046	47.85486	-103.53265	-15.572814
1448132883519	-2.5657196044921875	9.06414794921875	-2.22564697265625	-7.739529277438647	0	-6.965637	-39.73694	-4.8095703	47.11328	-104.55045	-15.533103
1448132883559	-2.2919769287109375	9.258148193359375	-2.417266845703125	-7.673783922850985	0	-6.515503	-39.886475	-4.060364	46.32776	-105.70864	-15.5789
1448132883600	-2.1289215087890625	8.9141845703125	-2.900482177734375	-7.835615250239346	0	-6.0653687	-40.33661	-2.709961	45.603485	-106.95409	-15.71399
1448132883640	-1.9622955322265625	9.015350341796875	-3.227783203125	-7.850769842127054	0	-6.0653687	-40.637207	-2.709961	45.072113	-108.13972	-15.866733
1448132883680	-2.0348968505859375	8.909423828125	-3.862152099609375	-8.0709805492189	0	-6.0653687	-40.637207	-2.1102905	44.286255	-109.21152	-15.926324
1448132883721	-1.6659393310546875	8.639251708984375	-3.246826171875	-7.8761891095275365	0	-6.2164307	-39.886475	-1.8096924	43.97229	-109.91576	-16.008345
1448132883761	-2.1943817138671875	7.652587890625	-2.679107666015625	-8.139537160529876	0	-5.166626	-41.236877	-1.6601563	43.54236	-110.38003	-15.736414
1448132883801	-3.3107757568359375	8.548797607421875	-3.164703369140625	-8.366697752816076	0	-6.666565	-40.637207	-1.5090942	43.436157	-110.74461	-14.841046
1448132883842	-2.9763336181640625	8.315521240234375	-3.15399169921875	-8.32835917968297	0	-6.965637	-40.486145	-1.6601563	43.686737	-110.509514	-14.004361
1448132883882	-2.5383453369140625	8.455963134765625	-2.70648193359375	-8.01463575251686	0	-8.178711	-40.490723	-2.8961182	45.026917	-110.1809	-13.265151
1448132883922	-0.4733734130859375	9.124847412109375	-2.069732666015625	-7.241109533635369	0	-10.877991	-38.990784	-1.9958496	52.225403	-109.221886	-11.444125
1448132883963	-2.5383453369140625	8.39288330078125	-3.424163818359375	-8.247634270579429	0	-12.527466	-39.289856	-0.3463745	55.99875	-108.690315	-10.83401
1448132884003	-2.1860504150390625	8.109619140625	-3.966888427734375	-8.407786110359364	0	-11.927795	-38.690186	-1.2466431	55.88336	-108.10207	-9.7331085
1448132884043	-1.4350433349609375	8.59521484375	-3.033782958984375	-7.775248590271814	0	-12.228394	-38.690186	-2.445984	55.289337	-107.5434	-9.503072
1448132884084	-1.8004302978515625	10.6280517578125	-3.0230712890625	-7.39733659163253	0	-12.828064	-38.990784	-3.7963867	54.480347	-105.87521	-8.648196
1448132884126	-1.2041473388671875	11.907501220703125	-2.238739013671875	-6.897198881528354	0	-12.828064	-38.83972	-3.9459229	53.791992	-104.2001	-7.915537
1448132884167	0.4323577880859375	11.033905029296875	-2.602935791015625	-6.829465971044099	0	-13.278198	-37.94098	-3.7963867	54.06064	-104.29792	-7.5955033
1448132884207	-1.4064788818359375	8.74041748046875	-4.347747802734375	-8.078540164259802	0	-13.578796	-38.391113	-1.6967773	54.64679	-107.16632	-7.816268
1448132884247	-1.7135467529296875	9.884185791015625	-0.912872314453125	-7.112575738113553	0	-12.828064	-38.690186	-0.3463745	57.371765	-108.13333	-8.753725
1448132884288	-1.3683929443359375	8.858245849609375	-3.59197998046875	-7.832296850834531	0	-13.578796	-38.24005	1.1535645	59.481384	-109.955154	-9.603154
1448132884328	-0.0758514404296875	7.658538818359375	-4.83929443359375	-8.15028090503794	0	-13.278198	-37.94098	2.8030396	61.11566	-111.53674	-9.659565
1448132884368	-2.0932159423828125	7.791839599609375	-3.0611572265625	-8.211782840429368	0	-13.128662	-38.83972	3.2531738	61.62451	-112.124855	-9.865811
1448132884409	-1.7004547119140625	7.599029541015625	-3.031402587890625	-8.113327357685439	0	-13.128662	-37.339783	2.8030396	61.427856	-111.93524	-9.812981
1448132884449	-1.8813629150390625	7.922760009765625	-3.597930908203125	-8.243440959299585	0	-13.278198	-38.090515	1.7532349	60.971252	-111.21347	-9.732915
1448132884489	-1.2922210693359375	8.710662841796875	-3.66815185546875	-7.87003347209754	0	-13.877869	-38.391113	-0.045776367	60.000122	-109.77608	-9.171862
1448132884530	-0.7471160888671875	9.55450439453125	-3.49676513671875	-7.502121063462433	0	-13.7283325	-38.83972	-1.6967773	58.4256	-107.557465	-7.6682925
1448132884570	0.0955352783203125	11.817047119140625	-1.719818115234375	-6.566071904323742	0	-14.927673	-38.090515	-3.6468506	57.017548	-104.98441	-6.067173
1448132884610	-0.1377410888671875	9.861572265625	-2.5517578125	-7.128527304149902	0	-14.778137	-37.94098	-3.3462524	57.37967	-104.01106	-5.752273
1448132884651	-0.6471405029296875	8.25482177734375	-3.8419189453125	-7.866042778709795	0	-15.377808	-38.090515	-1.6967773	59.421204	-105.39153	-6.8296475
1448132884691	-2.0622711181640625	8.210784912109375	-2.25421142578125	-8.248016040130999	0	-13.7283325	-37.490845	-0.045776367	60.430054	-106.97444	-8.699565
1448132884731	-1.0291900634765625	11.3707275390625	-1.522247314453125	-6.836871029010759	0	-12.527466	-38.24005	0.8529663	61.163513	-107.75065	-10.385111
1448132884771	-2.1241607666015625	8.198883056640625	-4.46795654296875	-8.539017360851643	0	-11.778259	-38.83972	1.4541626	62.191986	-109.37263	-12.181601
1448132884812	-1.8432769775390625	7.560943603515625	-3.857391357421875	-8.44268091568646	0	-11.778259	-38.990784	3.1036377	62.98053	-111.261055	-13.410139
1448132884852	-1.9277801513671875	8.1953125	-2.91357421875	-7.975218518745257	0	-11.778259	-38.391113	3.553772	62.773376	-111.380486	-13.150553
1448132884892	-2.1967620849609375	8.05487060546875	-2.84930419921875	-8.072009465813599	0	-11.628723	-38.24005	2.6535034	62.847717	-110.804955	-12.807898
1448132884932	-2.0741729736328125	8.415496826171875	-3.20159912109375	-8.034673158551596	0	-11.778259	-38.990784	2.053833	62.503082	-109.71973	-12.040697
1448132884973	-1.8658905029296875	8.851104736328125	-2.770751953125	-7.75368444394967	0	-13.128662	-38.391113	0.55389404	61.335938	-108.19509	-10.600704
1448132885013	-1.5231170654296875	9.21649169921875	-2.626739501953125	-7.6146158961517445	0	-13.578796	-38.690186	-0.045776367	60.6167	-107.29841	-9.748807
1448132885053	-0.5269317626953125	10.445953369140625	-0.8997802734375	-6.803394823358248	0	-14.028931	-38.24005	-2.8961182	58.956024	-104.26892	-7.333373
1448132885094	-1.0363311767578125	11.407623291015625	-2.38037109375	-6.979778282857616	0	-14.778137	-38.54065	-3.4957886	58.793304	-103.467575	-6.711603
1448132885134	-0.1175079345703125	10.22576904296875	-2.9564208984375	-7.132307530960583	0	-14.328003	-38.83972	-1.6967773	60.165436	-104.78234	-6.9291844
1448132885175	-1.3814849853515625	8.372650146484375	-5.08447265625	-8.4257696321116	0	-14.028931	-38.391113	-0.9460449	60.476013	-106.22188	-8.191356
1448132885215	-0.6364288330078125	10.564971923828125	-1.872161865234375	-6.968223487698304	0	-12.527466	-38.54065	1.0040283	60.62964	-108.882614	-10.609235
1448132885255	-1.9301605224609375	8.10723876953125	-4.218017578125	-8.406935515580496	0	-11.328125	-38.54065	2.053833	60.692474	-109.62564	-11.217334
1448132885295	-1.7147369384765625	7.5240478515625	-3.464630126953125	-8.27536494745816	0	-11.477661	-38.24005	2.8030396	61.226135	-111.43099	-12.613273
1448132885336	-1.9087371826171875	7.65972900390625	-3.443206787109375	-8.287460429657733	0	-11.027527	-38.24005	3.553772	61.259247	-111.72056	-12.753846
1448132885377	-2.2288970947265625	8.1429443359375	-2.671966552734375	-7.9745687499999995	0	-11.628723	-38.391113	0.7034302	61.022186	-111.85915	-12.624881
1448132885417	-2.0218048095703125	8.363128662109375	-3.02545166015625	-7.985646350841732	0	-11.178589	-38.24005	1.1535645	60.622406	-111.27286	-12.122055
1448132885457	-1.6992645263671875	8.78326416015625	-3.588409423828125	-7.936950244040093	0	-11.328125	-38.83972	1.7532349	59.857605	-110.46159	-11.816509
1448132885498	-1.4148101806640625	8.98797607421875	-3.52294921875	-7.794084987682156	0	-12.828064	-38.391113	0.40283203	58.59546	-109.247475	-10.284901
1448132885538	-1.3612518310546875	9.062957763671875	-2.738616943359375	-7.5788008642478975	0	-13.278198	-38.690186	-1.2466431	57.33777	-107.6089	-8.961303
1448132885578	-0.9744415283203125	10.39715576171875	-2.226837158203125	-7.124086798691325	0	-13.427734	-38.090515	-2.746582	56.5636	-105.86323	-7.738412
1448132885619	-0.6780853271484375	11.68255615234375	-2.412506103515625	-6.875394664019648	0	-13.877869	-38.54065	-2.1469116	56.956726	-105.144646	-7.4642587
1448132885659	-1.4314727783203125	8.717803955078125	-4.66790771484375	-8.188445661899316	0	-12.678528	-37.94098	-0.045776367	58.251465	-106.70885	-8.433699
1448132885699	-1.5826263427734375	10.08294677734375	-2.103057861328125	-7.277318961198224	0	-11.927795	-38.690186	0.8529663	59.154633	-108.62885	-10.139069
1448132885740	-1.7313995361328125	9.07366943359375	-4.694091796875	-8.179277628560973	0	-11.178589	-38.83972	1.902771	59.519897	-110.35148	-11.707972
1448132885780	-1.5409698486328125	6.775421142578125	-4.370361328125	-8.87703560426385	0	-10.728455	-38.391113	4.0039063	59.890472	-112.13704	-13.055468
1448132885821	-1.7778167724609375	7.163421630859375	-3.964508056640625	-8.614502352255565	0	-10.578918	-38.83972	3.703308	60.075104	-113.11851	-13.688468
1448132885861	-1.8896942138671875	7.970367431640625	-3.071868896484375	-8.072009465813599	0	-10.728455	-37.789917	3.703308	59.58487	-113.10409	-13.389395
1448132885902	-2.1503448486328125	8.015594482421875	-2.91357421875	-8.070637712541956	0	-10.578918	-38.990784	2.8030396	59.236603	-112.33487	-12.820089
1448132885942	-2.0396575927734375	8.4666748046875	-3.43487548828125	-8.076819168902368	0	-11.628723	-38.690186	1.0040283	58.85669	-111.03166	-12.05127
1448132885983	-1.9991912841796875	8.78564453125	-3.37774658203125	-7.960331692023322	0	-11.778259	-39.14032	0.7034302	58.401978	-110.14499	-11.424867
1448132886023	-0.8518524169921875	11.156494140625	-1.904296875	-6.908265159331514	0	-14.477539	-38.24005	-2.1469116	55.33423	-105.33471	-7.558566
1448132886063	-0.3460235595703125	11.967010498046875	-2.3660888671875	-6.7644136034606515	0	-13.128662	-38.54065	-3.4957886	55.05658	-104.551346	-6.923065
1448132886104	-0.8792266845703125	7.939422607421875	-3.8895263671875	-8.025962598487816	0	-13.877869	-37.789917	-1.3961792	56.762512	-104.78945	-7.2731013
1448132886144	-3.9844207763671875	7.519287109375	-3.36346435546875	-9.392592780812867	0	-13.128662	-38.391113	-0.7965088	57.708374	-106.77814	-8.64197
1448132886184	-0.7173614501953125	11.15887451171875	-0.929534912109375	-6.722450498206342	0	-12.828064	-39.14032	-0.3463745	57.8562	-107.7897	-10.065252
1448132886225	-1.6123809814453125	8.698760986328125	-4.233489990234375	-8.117549966801327	0	-11.927795	-38.54065	0.7034302	57.974487	-108.308525	-10.509249
1448132886265	-1.1732025146484375	7.917999267578125	-4.721466064453125	-8.384161710134123	0	-11.628723	-39.590454	1.7532349	58.74643	-109.66409	-11.607574
1448132886305	-1.8230438232421875	8.544036865234375	-3.552703857421875	-8.026631128201869	0	-11.628723	-39.891052	1.902771	58.918976	-110.84582	-12.072952
1448132886346	-2.3324432373046875	8.39288330078125	-2.507720947265625	-7.921734191457933	0	-11.477661	-39.891052	1.6036987	58.73639	-111.000534	-12.033209
1448132886386	-1.7361602783203125	8.139373779296875	-3.04449462890625	-7.973919211627319	0	-10.877991	-38.990784	2.053833	58.9097	-110.830444	-12.042318
1448132886427	-1.7040252685546875	8.3095703125	-3.312286376953125	-7.991866226965457	0	-11.927795	-37.490845	1.1535645	58.651764	-110.22308	-11.721274
1448132886467	-1.9111175537109375	8.49761962890625	-3.386077880859375	-8.01762705600785	0	-11.477661	-38.990784	-0.045776367	57.628174	-109.20765	-10.853321
1448132886508	-1.5790557861328125	9.06414794921875	-2.76361083984375	-7.6337030113596755	0	-12.228394	-38.54065	-1.5472412	56.305145	-107.60316	-9.539299
1448132886548	-0.1615447998046875	12.26812744140625	-2.405364990234375	-6.691922223508957	0	-13.128662	-38.990784	-2.8961182	55.191925	-105.66503	-8.07368
1448132886589	-0.4959869384765625	11.564727783203125	-2.62554931640625	-6.900882957974002	0	-13.128662	-37.190247	-3.1967163	55.386078	-104.69561	-7.454575
1448132886629	-2.7549591064453125	7.675201416015625	-4.2037353515625	-8.960132659810307	0	-12.828064	-38.24005	-1.5472412	56.75995	-105.900246	-8.249163
1448132886669	-3.4619293212890625	8.46905517578125	-2.3375244140625	-8.172708497962704	0	-12.678528	-38.54065	-0.3463745	57.45929	-107.59362	-9.727435
1448132886710	-1.1791534423828125	9.33551025390625	-4.3179931640625	-7.847425774092325	0	-12.37793	-39.289856	1.1535645	58.18524	-108.91238	-10.9756155
1448132886750	-1.3993377685546875	7.870391845703125	-4.395355224609375	-8.365871416074818	0	-11.778259	-38.391113	1.902771	59.202606	-111.15212	-12.519313
1448132886790	-1.5326385498046875	7.65972900390625	-4.37274169921875	-8.482081689487527	0	-11.178589	-38.690186	2.8030396	59.467804	-111.614845	-12.771849
1448132886831	-2.1943817138671875	8.408355712890625	-2.95404052734375	-8.00107141488159	0	-10.877991	-38.391113	2.8030396	59.42975	-112.04677	-12.786846
1448132886871	-2.1098785400390625	8.339324951171875	-2.8897705078125	-7.979121982807915	0	-10.877991	-38.54065	2.3529053	59.373474	-111.663376	-12.535036
1448132886911	-2.0099029541015625	8.41192626953125	-3.09210205078125	-7.987281098694229	0	-11.328125	-38.391113	2.9541016	59.39633	-111.406685	-12.454075
1448132886952	-1.7682952880859375	8.33099365234375	-3.57293701171875	-8.07750736149301	0	-10.877991	-38.690186	1.3031006	58.613403	-110.25018	-11.718319
1448132886992	-1.8242340087890625	8.363128662109375	-3.40155029296875	-8.03534497591353	0	-11.927795	-38.690186	1.0040283	58.066315	-109.65794	-11.265351
1448132887032	-1.7992401123046875	8.965362548828125	-2.86358642578125	-7.732344468311055	0	-13.7283325	-38.391113	-0.3463745	56.730988	-107.98443	-10.03055
1448132887073	-0.4055328369140625	11.850372314453125	-2.136383056640625	-6.755623693815627	0	-13.578796	-37.64038	-2.8961182	55.034027	-104.92756	-7.7653418
1448132887113	0.3026275634765625	12.53472900390625	-3.031402587890625	-6.6751540114042855	0	-13.7283325	-37.490845	-2.597046	55.16638	-104.4979	-7.4717727
1448132887154	0.0538787841796875	9.26885986328125	-3.32061767578125	-7.35667735393958	0	-12.9776	-38.54065	-1.0971069	56.72818	-105.34904	-8.134733
1448132887194	-2.8168487548828125	8.770172119140625	-1.86383056640625	-7.784350559932934	0	-12.9776	-39.289856	-0.49591064	57.236725	-107.58528	-10.097738
1448132887234	-1.3172149658203125	10.18292236328125	-1.40203857421875	-7.074628399993479	0	-12.228394	-38.990784	-0.045776367	57.31714	-107.94779	-10.46519
1448132887274	-1.3886260986328125	8.125091552734375	-3.924041748046875	-8.129571763489151	0	-10.877991	-38.090515	0.7034302	58.042755	-109.392586	-11.620409
1448132887315	-1.5147857666015625	8.425018310546875	-4.414398193359375	-8.226779013120176	0	-11.628723	-38.54065	1.4541626	58.506073	-110.14153	-12.061817
1448132887356	-1.6945037841796875	8.732086181640625	-3.88238525390625	-8.030312539155137	0	-11.178589	-37.64038	1.4541626	58.41745	-110.33499	-12.031908
1448132887396	-2.0729827880859375	8.4952392578125	-2.626739501953125	-7.858391343881914	0	-11.328125	-38.391113	1.3031006	58.203247	-110.24551	-11.895167
1448132887437	-1.7552032470703125	8.604736328125	-2.898101806640625	-7.818779265020594	0	-11.477661	-38.391113	1.1535645	58.201355	-109.89059	-11.819275
1448132887477	-1.6207122802734375	8.748748779296875	-3.205169677734375	-7.845300699462455	0	-11.927795	-38.54065	1.0040283	58.029236	-109.6615	-11.684257
1448132887517	-1.5754852294921875	8.582122802734375	-3.31585693359375	-7.88545954713133	0	-11.778259	-38.83972	-0.3463745	56.960022	-108.72527	-10.861222
1448132887557	-1.6754608154296875	8.655914306640625	-3.21588134765625	-7.866349463714881	0	-12.078857	-38.090515	-0.64697266	56.46997	-108.21799	-10.455635
1448132887597	-1.3624420166015625	10.166259765625	-2.60174560546875	-7.316204018724193	0	-12.678528	-37.94098	-2.2964478	55.245422	-106.18149	-8.965177
1448132887638	-0.5495452880859375	11.26361083984375	-2.541046142578125	-6.947750684422195	0	-13.128662	-38.54065	-2.445984	55.222046	-105.37914	-8.339214
1448132887679	-2.3871917724609375	8.282196044921875	-3.43963623046875	-8.239638595883042	0	-13.578796	-38.391113	-2.1469116	56.047638	-106.109344	-8.870315
1448132887720	-2.8430328369140625	8.282196044921875	-3.43963623046875	-8.239638595883042	0	-12.678528	-38.391113	-1.0971069	56.323303	-106.762146	-9.391845
1448132887760	-1.3588714599609375	9.87109375	-2.49224853515625	-7.353036519084371	0	-11.927795	-38.391113	0.2532959	56.98871	-108.56291	-10.902452
1448132887800	-1.4719390869140625	7.9715576171875	-3.97998046875	-8.219263217359517	0	-11.477661	-38.990784	1.1535645	57.53537	-110.023125	-11.931586
1448132887841	-1.9349212646484375	8.06439208984375	-3.538421630859375	-8.196926370242732	0	-11.628723	-38.83972	1.902771	58.047302	-111.25024	-12.730058
1448132887881	-2.0551300048828125	8.2857666015625	-3.086151123046875	-8.033330287397652	0	-11.027527	-39.891052	2.5039673	57.876587	-111.37623	-12.587247
1448132887922	-1.9456329345703125	8.241729736328125	-2.955230712890625	-7.978796375737484	0	-11.027527	-39.590454	1.7532349	57.826935	-111.23807	-12.449525
1448132887962	-1.7920989990234375	8.6190185546875	-3.217071533203125	-7.906639994510163	0	-11.778259	-39.14032	1.4541626	57.401062	-110.19769	-11.704072
1448132888002	-1.6790313720703125	8.786834716796875	-3.236114501953125	-7.838939246014842	0	-12.078857	-39.14032	0.40283203	56.60681	-109.0485	-10.784723
1448132888042	-1.6552276611328125	9.05462646484375	-2.981414794921875	-7.704699905136055	0	-12.37793	-39.14032	-0.49591064	56.117188	-108.34876	-10.213201
1448132888083	-0.8316192626953125	10.769683837890625	-2.58746337890625	-7.09540078262606	0	-13.427734	-38.690186	-2.1469116	54.546143	-105.84958	-8.114169
1448132888124	-0.5055084228515625	11.118408203125	-2.53271484375	-6.964033389254802	0	-13.877869	-38.83972	-3.0471802	54.38391	-105.24348	-7.6177235
1448132888164	-0.2912750244140625	10.04010009765625	-3.0230712890625	-7.213194172872342	0	-13.7283325	-39.590454	-2.597046	55.47119	-105.34994	-7.8525577
1448132888204	-2.9775238037109375	8.793975830078125	-2.272064208984375	-7.923945539568449	0	-12.078857	-38.090515	-0.3463745	56.351868	-106.75475	-9.076829
1448132888245	-0.9280242919921875	10.585205078125	-2.479156494140625	-7.127416487809731	0	-12.9776	-38.54065	0.40283203	56.774902	-107.99615	-10.288452
1448132888286	-1.4874114990234375	8.271484375	-4.4560546875	-8.280815549798543	0	-11.328125	-38.990784	1.6036987	57.35257	-109.64917	-11.489494
1448132888326	-1.9575347900390625	7.270538330078125	-4.02520751953125	-8.6717889934849	0	-10.877991	-38.54065	2.5039673	58.423523	-111.68355	-13.006937
1448132888366	-2.2562713623046875	7.941802978515625	-3.132568359375	-8.208800495420048	0	-10.578918	-39.289856	2.9541016	58.135406	-112.17427	-13.00675
1448132888407	-1.9111175537109375	7.772796630859375	-3.086151123046875	-8.14060841715765	0	-11.027527	-39.289856	3.1036377	57.92328	-111.902054	-12.610763
1448132888447	-1.8016204833984375	8.15484619140625	-3.399169921875	-8.087863316812953	0	-11.477661	-38.391113	1.7532349	57.876434	-111.514175	-12.360461
1448132888488	-1.7028350830078125	9.117706298828125	-2.931427001953125	-7.6891854884158395	0	-12.228394	-38.090515	-0.49591064	56.817566	-109.367966	-10.839955
1448132888528	-1.4040985107421875	9.804443359375	-2.336334228515625	-7.344078808189218	0	-12.678528	-38.690186	-2.1469116	55.480713	-107.3332	-9.306486
1448132888569	-0.0651397705078125	12.654937744140625	-2.8231201171875	-6.681431547508948	0	-13.278198	-38.83972	-3.4957886	54.24301	-105.29293	-7.7306404
1448132888609	-0.0044403076171875	11.44451904296875	-2.776702880859375	-6.929077435640436	0	-14.628601	-38.391113	-3.0471802	54.67093	-104.47481	-7.3216677
1448132888649	-3.4916839599609375	7.28125	-3.764556884765625	-9.648457168125022	0	-13.578796	-37.339783	-1.8463135	56.09369	-105.558655	-8.320133
1448132888689	-3.1572418212890625	8.408355712890625	-2.60888671875	-8.18110709849241	0	-12.37793	-37.789917	-1.2466431	56.164795	-106.9468	-9.557769
1448132888730	-1.1434478759765625	9.543792724609375	-2.964752197265625	-7.475164251074633	0	-11.328125	-39.590454	0.103759766	56.217102	-107.821465	-10.36712
1448132888770	-1.1517791748046875	8.14056396484375	-3.8895263671875	-8.046128920188814	0	-11.027527	-39.289856	1.4541626	57.296967	-109.594444	-11.842627
1448132888810	-1.8670806884765625	8.4381103515625	-4.10137939453125	-8.235087903783528	0	-11.027527	-39.289856	1.7532349	57.697693	-110.43913	-12.275855
1448132888851	-2.2657928466796875	8.50714111328125	-2.93499755859375	-7.988262652858988	0	-11.778259	-39.73999	2.053833	57.51996	-110.751015	-12.137766
1448132888891	-1.8301849365234375	8.1905517578125	-2.7564697265625	-7.908206707047624	0	-11.927795	-38.54065	1.1535645	57.542267	-110.58064	-11.917398
1448132888932	-1.7302093505859375	8.498809814453125	-3.045684814453125	-7.8771141489469105	0	-11.927795	-39.590454	1.0040283	57.36139	-110.01776	-11.574383
1448132888972	-1.6742706298828125	8.65472412109375	-3.281341552734375	-7.8832924482869196	0	-11.927795	-39.590454	0.2532959	56.654205	-109.12143	-10.883234
1448132889012	-1.6361846923828125	8.882049560546875	-2.942138671875	-7.732057593518738	0	-12.37793	-38.83972	-0.49591064	55.63269	-107.86219	-9.883805
1448132889052	-1.2065277099609375	10.050811767578125	-2.507720947265625	-7.2893469117405845	0	-12.828064	-39.73999	-1.9958496	55.070343	-107.077965	-9.285313
1448132889093	-0.0829925537109375	11.921783447265625	-2.75408935546875	-6.7925161361889845	0	-13.427734	-38.990784	-2.8961182	54.125183	-105.02979	-7.8031435
1448132889133	-0.4936065673828125	9.539031982421875	-3.224212646484375	-7.393881042360157	0	-13.578796	-38.83972	-1.8463135	55.201294	-105.55082	-8.34022
1448132889173	-3.1834259033203125	7.77874755859375	-3.114715576171875	-8.233195666623146	0	-13.427734	-39.590454	-1.9958496	55.53943	-106.334564	-8.930251
1448132889214	-1.4659881591796875	9.712799072265625	-1.784088134765625	-7.264411419599185	0	-12.37793	-39.590454	-0.045776367	55.79889	-108.099495	-10.476962
1448132889254	-1.3029327392578125	8.758270263671875	-3.399169921875	-7.792607050027467	0	-11.027527	-39.14032	0.7034302	56.013184	-109.09507	-11.160138
1448132889295	-1.3672027587890625	8.246490478515625	-3.88238525390625	-8.075443604459632	0	-11.927795	-37.64038	1.1535645	56.487457	-109.80407	-11.663703
1448132889336	-1.5207366943359375	8.534515380859375	-4.008544921875	-8.073038993098761	0	-11.328125	-37.94098	0.103759766	56.59024	-110.04294	-11.711678
1448132889376	-2.0836944580078125	8.586883544921875	-2.788604736328125	-7.879274300854695	0	-11.477661	-39.14032	0.8529663	56.269226	-110.12496	-11.29219
1448132889417	-1.7373504638671875	8.5142822265625	-2.869537353515625	-7.82988696842974	0	-11.927795	-38.090515	-0.3463745	56.10251	-109.71482	-10.965215
1448132889457	-1.6445159912109375	8.6571044921875	-3.026641845703125	-7.810116427497226	0	-11.778259	-38.54065	-0.3463745	55.64435	-108.979126	-10.50225
1448132889497	-1.5933380126953125	8.820159912109375	-3.1563720703125	-7.789064416893332	0	-12.37793	-38.391113	-1.9958496	54.734406	-108.03706	-9.782576
1448132889537	-1.3457794189453125	9.93536376953125	-2.881439208984375	-7.4174275194951775	0	-12.678528	-39.14032	-3.0471802	53.665527	-106.81571	-8.819
1448132889578	-0.5245513916015625	11.1422119140625	-2.391082763671875	-6.938398863609969	0	-13.278198	-38.090515	-3.6468506	53.450043	-106.00286	-8.265583
1448132889618	-1.3779144287109375	10.14007568359375	-2.762420654296875	-7.219857182609699	0	-13.128662	-38.54065	-3.6468506	53.8385	-106.11021	-8.421878
1448132889659	-2.1884307861328125	8.846343994140625	-3.240875244140625	-7.9580768154369315	0	-12.228394	-39.440918	-2.746582	54.447388	-107.65109	-9.602749
1448132889699	-1.5635833740234375	9.252197265625	-3.284912109375	-7.7081001114542405	0	-12.228394	-37.789917	0.103759766	54.556396	-108.463165	-10.238434
1448132889740	-1.3886260986328125	8.679718017578125	-3.7562255859375	-7.926475979354603	0	-12.078857	-38.54065	-1.2466431	55.079346	-109.546486	-11.0025215
1448132889780	-1.9361114501953125	8.61663818359375	-3.719329833984375	-8.085787139920768	0	-11.477661	-39.14032	2.053833	55.77884	-110.47329	-11.648325
1448132889820	-2.2443695068359375	8.515472412109375	-3.495574951171875	-8.14060841715765	0	-11.328125	-38.391113	2.3529053	55.993317	-111.258316	-12.0446005
1448132889861	-1.7730560302734375	8.1143798828125	-3.21588134765625	-8.038707892182666	0	-10.877991	-38.690186	2.2033691	56.1239	-111.72164	-12.277829
1448132889901	-1.6492767333984375	8.30242919921875	-3.400360107421875	-8.003050067672525	0	-11.027527	-38.83972	2.053833	56.04306	-111.47716	-12.123563
1448132889941	-1.7504425048828125	8.355987548828125	-3.509857177734375	-8.047143303684077	0	-11.778259	-38.54065	1.6036987	55.897736	-111.23289	-11.937862
1448132889981	-1.7599639892578125	8.551177978515625	-3.307525634765625	-7.940135868415311	0	-11.927795	-38.090515	-1.5472412	55.006073	-109.88811	-10.878684
1448132890022	-1.6921234130859375	9.04034423828125	-3.02783203125	-7.728045503734551	0	-12.828064	-38.391113	-0.3463745	54.55655	-109.195595	-10.352393
1448132890062	-0.8185272216796875	10.394775390625	-2.502960205078125	-7.147034628765972	0	-13.278198	-38.690186	-1.3961792	53.641663	-107.4511	-9.061284
1448132890102	-0.2484283447265625	11.470703125	-2.679107666015625	-6.883730328896306	0	-13.578796	-39.289856	-2.445984	53.339355	-105.584694	-7.5817895
1448132890143	-1.0767974853515625	8.5523681640625	-3.526519775390625	-7.819378094092078	0	-13.578796	-38.54065	-1.9958496	53.98529	-105.828316	-7.791462
1448132890183	-2.9739532470703125	8.394073486328125	-2.5469970703125	-8.111571041856418	0	-13.7283325	-38.54065	-0.64697266	54.982483	-107.133896	-8.850473
1448132890224	-1.1351165771484375	10.272186279296875	-1.84954833984375	-7.1070590460034335	0	-12.678528	-37.339783	-0.19683838	55.515106	-108.03573	-9.830757
1448132890264	-1.6016693115234375	8.341705322265625	-4.076385498046875	-8.174530604203573	0	-11.778259	-38.690186	1.1535645	56.417694	-109.81398	-11.228122
1448132890304	-1.5302581787109375	8.04058837890625	-3.985931396484375	-8.21776432450963	0	-12.078857	-38.24005	2.053833	56.842102	-110.32133	-11.642768
1448132890345	-2.0967864990234375	8.405975341796875	-3.2991943359375	-8.071666425814538	0	-11.778259	-38.24005	2.2033691	57.127686	-111.10073	-11.95085
1448132890385	-1.9860992431640625	8.198883056640625	-2.933807373046875	-7.995805577535183	0	-12.37793	-39.590454	2.053833	57.003723	-110.970856	-11.701547
1448132890425	-1.6611785888671875	8.370269775390625	-3.014739990234375	-7.8845304912961485	0	-11.778259	-40.490723	1.0040283	56.94519	-110.36422	-11.289279
1448132890466	-1.5445404052734375	8.7618408203125	-3.23016357421875	-7.809818379286229	0	-12.527466	-40.04059	0.40283203	56.69876	-109.895546	-10.925993
1448132890506	-1.5159759521484375	9.036773681640625	-2.942138671875	-7.666819857644905	0	-13.128662	-38.990784	-0.3463745	55.18521	-107.94904	-9.265669
1448132890547	-0.3436431884765625	12.1038818359375	-2.64935302734375	-6.788175639490499	0	-14.628601	-37.94098	-2.445984	54.12146	-106.35792	-7.9875894
1448132890587	-0.2389068603515625	11.683746337890625	-2.71124267578125	-6.851334055663042	0	-13.7283325	-38.990784	-2.445984	54.27063	-105.56908	-7.4597893
1448132890628	-3.1108245849609375	7.405029296875	-3.636016845703125	-8.99531221739081	0	-13.578796	-38.54065	-0.7965088	55.62378	-106.48184	-8.339935
1448132890669	-1.8111419677734375	9.403350830078125	-1.8804931640625	-7.416680399209591	0	-13.128662	-38.690186	-0.045776367	55.96039	-107.86466	-9.579348
1448132890709	-1.1006011962890625	9.95440673828125	-1.929290771484375	-7.175152723213362	0	-13.128662	-38.690186	0.40283203	56.126312	-108.68059	-10.3875
1448132890749	-1.1755828857421875	8.046539306640625	-3.722900390625	-8.032323801018162	0	-12.9776	-38.090515	1.1535645	56.47165	-109.63486	-11.090978
1448132890789	-1.5635833740234375	8.605926513671875	-3.8466796875	-8.01895813090305	0	-11.778259	-38.24005	1.6036987	56.97397	-110.2405	-11.471784
1448132890830	-2.1301116943359375	8.722564697265625	-3.4420166015625	-7.9580768154369315	0	-12.228394	-38.54065	1.1535645	56.83426	-110.26502	-11.288232
1448132890871	-1.7468719482421875	8.498809814453125	-2.84454345703125	-7.82988696842974	0	-12.9776	-39.14032	1.0040283	56.486176	-109.77796	-10.766451
1448132890911	-1.6183319091796875	8.6475830078125	-3.036163330078125	-7.808328805053056	0	-12.678528	-38.54065	0.55389404	56.37271	-109.42207	-10.57949
1448132890952	-1.6195220947265625	8.8760986328125	-3.18017578125	-7.787590154348934	0	-12.828064	-37.64038	-0.49591064	55.354034	-108.047745	-9.651912
1448132890992	-1.3005523681640625	9.929412841796875	-2.94451904296875	-7.4224143044921895	0	-13.877869	-38.090515	-1.8463135	54.857117	-107.46618	-9.189366
1448132891033	-0.4448089599609375	11.5135498046875	-2.591033935546875	-6.894949796218699	0	-14.178467	-37.04071	-2.597046	54.111877	-106.36809	-8.32053
1448132891075	-1.2279510498046875	9.34027099609375	-2.817169189453125	-7.505480542684509	0	-12.9776	-38.090515	-1.2466431	55.194763	-106.65875	-8.901301
1448132891115	-2.8549346923828125	8.353607177734375	-3.2515869140625	-8.30757179102958	0	-12.828064	-39.14032	-0.3463745	55.771057	-108.14638	-10.21544
1448132891155	-1.5064544677734375	9.54498291015625	-2.831451416015625	-7.524697936727522	0	-11.477661	-38.24005	1.0040283	56.013	-109.45505	-11.334695
1448132891196	-1.4850311279296875	8.317901611328125	-3.55389404296875	-7.995805577535183	0	-11.328125	-38.990784	1.4541626	56.226715	-110.66205	-12.264987
1448132891236	-1.5921478271484375	7.709716796875	-3.98236083984375	-8.345364861535689	0	-11.328125	-39.14032	1.7532349	56.60898	-111.45623	-12.871512
1448132891276	-1.9313507080078125	8.236968994140625	-3.595550537109375	-8.16037165951274	0	-11.477661	-39.289856	2.3529053	56.499176	-111.707214	-12.766636
1448132891316	-1.9908599853515625	8.377410888671875	-3.093292236328125	-7.991866226965457	0	-11.328125	-38.83972	1.6036987	56.277283	-111.39303	-12.278102
1448132891357	-1.7885284423828125	8.517852783203125	-3.136138916015625	-7.911030052779721	0	-12.828064	-39.289856	0.8529663	56.083466	-110.64925	-11.627485
1448132891397	-1.6195220947265625	8.76422119140625	-3.23016357421875	-7.828081482911788	0	-12.678528	-39.14032	0.2532959	55.521393	-109.51443	-10.662771
1448132891437	-1.5540618896484375	9.01654052734375	-2.962371826171875	-7.685254480872237	0	-13.578796	-38.090515	-0.9460449	54.553528	-108.04453	-9.385725
1448132891478	-1.0149078369140625	10.51617431640625	-2.63507080078125	-7.186257335631284	0	-14.628601	-38.690186	-2.445984	53.60959	-106.42672	-8.004753
1448132891518	-0.1591644287109375	11.552825927734375	-2.60650634765625	-6.842286394564976	0	-14.178467	-37.490845	-4.396057	53.95883	-105.62874	-7.4316444
1448132891558	-1.4076690673828125	8.560699462890625	-3.303955078125	-7.8446939580645525	0	-13.278198	-38.990784	-3.7963867	55.3273	-106.55882	-8.23312
1448132891599	-1.6909332275390625	9.431915283203125	-2.045928955078125	-7.420168961694904	0	-13.128662	-37.190247	-2.597046	55.727448	-107.97905	-9.378243
1448132891640	-1.1696319580078125	9.80206298828125	-2.219696044921875	-7.274262150235169	0	-12.678528	-38.090515	-1.2466431	55.977936	-108.975975	-10.233064
1448132891680	-1.2220001220703125	7.998931884765625	-3.90380859375	-8.111571041856418	0	-12.9776	-38.54065	-0.49591064	56.854736	-110.42104	-11.304554
1448132891720	-1.3755340576171875	8.29766845703125	-3.93475341796875	-8.078195828098846	0	-12.37793	-38.83972	-0.49591064	57.108765	-110.67545	-11.436308
1448132891761	-2.1908111572265625	8.698760986328125	-3.02545166015625	-7.940454729945893	0	-12.9776	-38.83972	-0.9460449	56.962708	-110.78823	-11.173561
1448132891801	-2.1908111572265625	8.57379150390625	-2.79217529296875	-7.911658034210298	0	-12.37793	-38.690186	-1.0971069	56.910095	-110.64572	-11.052204
1448132891842	-1.7230682373046875	8.717803955078125	-2.852874755859375	-7.7714437499999995	0	-12.678528	-37.789917	1.7532349	56.756714	-110.14645	-10.784394
1448132891883	-1.5778656005859375	8.65234375	-3.303955078125	-7.864816523067244	0	-13.128662	-37.64038	-1.6967773	55.81949	-109.08097	-10.053541
1448132891923	-1.5112152099609375	8.947509765625	-3.124237060546875	-7.730050579659325	0	-12.678528	-38.83972	-0.7965088	55.35196	-108.61451	-9.662076
1448132891964	-1.0101470947265625	10.166259765625	-2.833831787109375	-7.292185379499024	0	-13.278198	-37.64038	-1.8463135	53.853607	-106.739395	-8.097124
1448132892004	-0.2734222412109375	10.962493896484375	-2.460113525390625	-6.937983934737376	0	-14.178467	-38.83972	-2.1469116	53.609894	-106.170975	-7.650889
1448132892044	-1.4326629638671875	8.598785400390625	-3.49676513671875	-7.891043344663309	0	-13.7283325	-37.339783	-1.5472412	54.462433	-106.48359	-7.9557524
1448132892085	-2.0360870361328125	8.95703125	-2.49700927734375	-7.703284774808246	0	-13.578796	-38.83972	-1.2466431	54.676483	-107.40635	-8.750776
1448132892125	-1.2315216064453125	9.80206298828125	-2.288726806640625	-7.300245161754761	0	-12.9776	-38.391113	-0.49591064	54.891937	-108.25876	-9.489212
1448132892165	-1.2541351318359375	8.70947265625	-4.076385498046875	-7.968407402265152	0	-12.678528	-38.54065	0.40283203	55.356262	-108.80485	-9.869627
1448132892206	-1.2803192138671875	8.93560791015625	-3.80859375	-7.845300699462455	0	-13.128662	-38.690186	1.6036987	55.954895	-110.21177	-10.913101
1448132892246	-2.0360870361328125	8.548797607421875	-3.40869140625	-8.044777317367306	0	-12.37793	-39.14032	-0.3463745	56.072296	-110.58798	-11.11918
1448132892286	-1.9123077392578125	8.425018310546875	-2.993316650390625	-7.930595223647221	0	-12.228394	-39.289856	-0.3463745	56.246887	-111.285645	-11.416619
1448132892327	-1.7004547119140625	8.3857421875	-3.21826171875	-7.944604898815268	0	-12.078857	-39.440918	2.053833	56.340576	-111.352936	-11.458716
1448132892367	-1.6040496826171875	8.36669921875	-3.44677734375	-8.00074185019239	0	-12.37793	-39.440918	-0.3463745	56.40576	-111.2215	-11.318418
1448132892408	-1.6278533935546875	8.35479736328125	-3.428924560546875	-7.990555009043089	0	-12.527466	-37.94098	-0.64697266	56.026	-110.79656	-10.91411
1448132892448	-1.7790069580078125	8.527374267578125	-3.233734130859375	-7.9318645043337614	0	-12.828064	-38.83972	0.55389404	55.315582	-109.9177	-10.253249
1448132892492	-1.4195709228515625	9.500946044921875	-2.662445068359375	-7.478740456618798	0	-13.427734	-38.391113	-2.8961182	54.35013	-108.46404	-9.219164
1448132892532	0.2074127197265625	12.02294921875	-2.5517578125	-6.69555449631855	0	-14.328003	-39.440918	-4.396057	53.18158	-106.05737	-7.318053
1448132892572	0.0895843505859375	10.543548583984375	-3.002838134765625	-7.044301174781285	0	-14.628601	-39.440918	-4.246521	53.513977	-105.88135	-7.1979685
1448132892612	-3.3298187255859375	7.36456298828125	-4.4227294921875	NaN	0	-14.477539	-37.64038	-3.1967163	55.34848	-108.040184	-8.801272
1448132892653	-1.6100006103515625	9.41644287109375	-1.96142578125	-7.388953111082557	0	-12.828064	-39.14032	0.2532959	55.740295	-109.149254	-9.833779
1448132892694	-1.3076934814453125	9.072479248046875	-3.49676513671875	-7.740681165707904	0	-12.078857	-38.391113	1.0040283	55.967743	-110.10205	-10.608236
1448132892734	-1.3921966552734375	7.709716796875	-3.6610107421875	-8.17671982053463	0	-12.228394	-38.391113	1.902771	56.45099	-110.80333	-11.253152
1448132892774	-1.7147369384765625	8.73089599609375	-3.538421630859375	-7.94173072126816	0	-12.527466	-38.83972	1.6036987	56.552185	-110.9196	-11.297139
1448132892814	-2.0051422119140625	8.891571044921875	-3.043304443359375	-7.846211163659505	0	-12.9776	-39.289856	1.7532349	56.350952	-110.67756	-11.014438
1448132892855	-1.7730560302734375	8.699951171875	-2.9849853515625	-7.8211756649927295	0	-13.278198	-37.94098	1.1535645	56.263702	-110.24962	-10.81727
1448132892895	-1.5778656005859375	8.984405517578125	-3.01116943359375	-7.710086111804065	0	-12.9776	-38.990784	0.40283203	56.007538	-109.67325	-10.626999
1448132892936	-1.6302337646484375	8.601165771484375	-3.2706298828125	-7.882983062035625	0	-13.578796	-39.14032	0.55389404	55.424347	-109.10462	-10.271735
1448132892976	-1.5362091064453125	8.67852783203125	-3.228973388671875	-7.828382282731735	0	-12.527466	-38.690186	-0.045776367	54.62372	-108.34613	-9.621647
1448132893016	-1.3219757080078125	9.405731201171875	-2.869537353515625	-7.523133744578554	0	-13.7283325	-38.690186	-1.3961792	53.843414	-107.8335	-9.181347
1448132893059	-0.5114593505859375	11.07080078125	-3.005218505859375	-7.058123526605205	0	-13.7283325	-37.789917	-2.445984	53.468964	-106.245895	-7.803438
1448132893099	-0.5352630615234375	9.948455810546875	-3.24444580078125	-7.32290377295407	0	-13.7283325	-38.391113	-1.8463135	54.06952	-106.35664	-7.7877245
1448132893139	-2.1765289306640625	8.94989013671875	-2.286346435546875	-7.688342515531264	0	-13.578796	-39.440918	-0.49591064	54.637024	-107.35456	-8.478545
1448132893179	-1.4707489013671875	9.69732666015625	-2.0804443359375	-7.327460346238727	0	-13.427734	-38.24005	-0.3463745	55.05487	-108.1728	-9.218373
1448132893220	-1.3921966552734375	9.265289306640625	-3.202789306640625	-7.645511537042834	0	-12.228394	-38.690186	0.55389404	55.60489	-109.120926	-9.982696
1448132893262	-1.3695831298828125	8.30242919921875	-3.83477783203125	-8.046466983065004	0	-11.477661	-38.54065	1.3031006	56.34146	-110.1287	-10.766187
1448132893302	-1.6754608154296875	8.3905029296875	-3.608642578125	-8.044101904644203	0	-12.37793	-39.590454	2.6535034	56.651703	-110.824455	-11.139546
1448132893342	-1.7659149169921875	8.3809814453125	-3.075439453125	-7.950687224181774	0	-12.37793	-38.391113	2.2033691	56.55362	-111.00674	-11.109277
1448132893382	-1.6314239501953125	8.527374267578125	-3.1182861328125	-7.862978590216111	0	-12.527466	-38.83972	1.1535645	56.518066	-110.74212	-10.949908
1448132893423	-1.6373748779296875	8.670196533203125	-3.202789306640625	-7.84955315624975	0	-12.37793	-38.24005	1.1535645	56.229553	-110.14601	-10.528936
1448132893464	-1.6266632080078125	8.852294921875	-3.18255615234375	-7.795859946804799	0	-13.578796	-38.391113	-0.045776367	55.118774	-108.63138	-9.296893
1448132893504	-1.4040985107421875	9.709228515625	-2.78265380859375	-7.456605064624806	0	-13.7283325	-38.391113	-1.5472412	54.19348	-107.16175	-8.1492
1448132893544	-0.9327850341796875	10.543548583984375	-2.586273193359375	-7.156224487653624	0	-14.028931	-37.789917	-2.1469116	53.79315	-106.41737	-7.557769
1448132893584	-0.2103424072265625	9.94012451171875	-2.95404052734375	-7.203574533903204	0	-14.477539	-38.690186	-1.6967773	54.45764	-105.97776	-7.2578187
1448132893625	-2.6252288818359375	7.837066650390625	-3.608642578125	-8.540426555945162	0	-13.877869	-39.73999	-0.49591064	55.19641	-107.244484	-8.217402
1448132893665	-1.4766998291015625	9.62115478515625	-1.869781494140625	-7.301670168265373	0	-12.828064	-38.54065	-0.045776367	55.460876	-108.11388	-9.026811
1448132893705	-0.9827728271484375	9.403350830078125	-3.3658447265625	-7.55832660106312	0	-12.678528	-39.440918	0.55389404	55.86859	-109.01377	-9.734319
1448132893745	-1.1017913818359375	8.329803466796875	-3.864532470703125	-7.972620825020684	0	-12.527466	-38.990784	1.6036987	56.660828	-109.86996	-10.471246
1448132893786	-1.9134979248046875	8.577362060546875	-3.662200927734375	-8.074069132163062	0	-12.828064	-38.690186	1.6036987	57.003387	-110.4582	-10.807861
1448132893826	-2.0527496337890625	8.62615966796875	-2.771942138671875	-7.856864660137737	0	-12.37793	-40.04059	2.053833	56.929565	-110.626114	-10.78466
1448132893867	-1.6671295166015625	8.405975341796875	-3.038543701171875	-7.882983062035625	0	-12.228394	-37.94098	2.053833	56.884674	-110.51425	-10.746826
1448132893907	-1.6373748779296875	8.570220947265625	-3.090911865234375	-7.852900865635348	0	-11.927795	-38.83972	1.4541626	56.803253	-110.346016	-10.690237
1448132893948	-1.4850311279296875	8.636871337890625	-3.436065673828125	-7.87896555951788	0	-12.828064	-37.94098	0.40283203	55.935577	-109.50451	-10.048707
1448132893988	-1.6326141357421875	8.757080078125	-3.14208984375	-7.811010839217447	0	-13.128662	-38.83972	-0.49591064	54.99411	-108.56797	-9.257828
1448132894028	-1.3255462646484375	9.642578125	-2.693389892578125	-7.435178070487362	0	-14.178467	-37.490845	-1.9958496	54.04895	-107.173584	-8.215717
1448132894069	-0.2186737060546875	11.300506591796875	-2.821929931640625	-6.9325953107029274	0	-13.877869	-38.690186	-2.2964478	53.5773	-106.0196	-7.342408
1448132894117	-0.6447601318359375	9.772308349609375	-3.3277587890625	-7.398324802122701	0	-13.278198	-38.24005	-1.2466431	54.222443	-106.195206	-7.537115
1448132894157	-2.1931915283203125	8.7237548828125	-2.298248291015625	-7.7493408856742025	0	-13.7283325	-38.54065	-0.64697266	54.957123	-107.698524	-8.855081
1448132894197	-1.0422821044921875	9.7139892578125	-2.705291748046875	-7.363975304048237	0	-12.678528	-37.789917	-0.045776367	55.060974	-108.12138	-9.205092
1448132894238	-1.0565643310546875	8.71661376953125	-3.570556640625	-7.784350559932934	0	-13.128662	-38.54065	-1.0971069	55.656372	-109.43909	-10.175879
1448132894278	-1.4100494384765625	8.355987548828125	-3.932373046875	-8.070637712541956	0	-12.678528	-38.990784	1.0040283	56.261047	-110.209724	-10.689235
1448132894319	-1.9575347900390625	8.5618896484375	-3.131378173828125	-7.943007586254357	0	-12.527466	-38.54065	1.6036987	56.25302	-110.59962	-10.74559
1448132894359	-1.7516326904296875	8.310760498046875	-2.895721435546875	-7.892597290474668	0	-11.778259	-39.14032	1.4541626	56.189606	-110.51449	-10.617515
1448132894399	-1.6599884033203125	8.5142822265625	-3.021881103515625	-7.848945096875712	0	-13.427734	-38.24005	-0.9460449	56.175323	-110.34554	-10.531507
1448132894440	-1.5243072509765625	8.746368408203125	-3.264678955078125	-7.817282980983564	0	-13.7283325	-38.54065	-1.8463135	55.408966	-109.24678	-9.716372
1448132894480	-1.4398040771484375	9.034393310546875	-2.945709228515625	-7.6504738430038906	0	-13.7283325	-38.54065	-2.8961182	54.439514	-108.074875	-8.762239
1448132894520	-0.9113616943359375	10.250762939453125	-2.71124267578125	-7.232078963120336	0	-13.278198	-38.83972	-1.8463135	53.645874	-106.67958	-7.676061
1448132894561	-0.3257904052734375	11.32550048828125	-2.78741455078125	-6.9408896984819695	0	-13.427734	-38.090515	-2.1469116	53.758514	-105.893715	-7.175791
1448132894601	-1.3826751708984375	8.5999755859375	-3.102813720703125	-7.778180247006074	0	-13.7283325	-37.789917	-1.0971069	54.847656	-106.5935	-7.9289336
1448132894641	-2.7823333740234375	8.11676025390625	-2.781463623046875	-8.208800495420048	0	-13.427734	-38.24005	-0.7965088	55.148773	-107.80213	-8.98323
1448132894682	-0.8685150146484375	9.598541259765625	-2.12567138671875	-7.236706060865849	0	-12.828064	-38.090515	-0.045776367	55.197968	-108.53226	-9.556695
1448132894722	-1.1351165771484375	8.395263671875	-3.59197998046875	-7.89135403296135	0	-12.527466	-38.24005	0.7034302	55.339172	-109.185455	-9.925468
1448132894762	-0.9994354248046875	8.962982177734375	-3.497955322265625	-7.6934053968779725	0	-12.678528	-37.64038	0.7034302	55.655853	-109.40868	-10.013138
1448132894803	-1.8135223388671875	9.01654052734375	-3.046875	-7.767937892519566	0	-13.278198	-38.24005	0.55389404	55.527924	-109.493004	-9.77828
1448132894843	-1.6695098876953125	8.880859375	-2.59698486328125	-7.658492781069008	0	-13.427734	-37.94098	0.7034302	55.504883	-109.30367	-9.615461
1448132894886	-1.5147857666015625	8.986785888671875	-2.886199951171875	-7.665151851923928	0	-12.678528	-38.391113	-0.045776367	55.565796	-109.059265	-9.586041
1448132894926	-1.4255218505859375	8.90228271484375	-3.038543701171875	-7.7098022823015775	0	-12.9776	-37.490845	0.103759766	55.313446	-108.845955	-9.50186
1448132894966	-1.4231414794921875	8.74517822265625	-3.1658935546875	-7.767937892519566	0	-14.028931	-38.391113	-1.8463135	54.59845	-108.43933	-9.126602
1448132895007	-1.4814605712890625	8.865386962890625	-3.124237060546875	-7.742698517115052	0	-14.178467	-37.94098	-2.1469116	54.32541	-108.174484	-8.908774
1448132895047	-0.9125518798828125	9.993682861328125	-2.876678466796875	-7.315726154409171	0	-14.477539	-37.94098	-2.2964478	53.538544	-107.01891	-7.9959474
1448132895088	-1.0399017333984375	9.805633544921875	-3.014739990234375	-7.40847743822609	0	-14.927673	-38.24005	-3.4957886	53.489197	-106.73225	-7.735496
1448132895128	-1.5707244873046875	9.40692138671875	-3.069488525390625	-7.623320729264476	0	-14.927673	-38.690186	-2.2964478	53.809296	-107.15974	-8.049566
1448132895169	-1.4279022216796875	9.700897216796875	-2.310150146484375	-7.364706298662283	0	-14.628601	-37.94098	-1.9958496	54.272003	-107.91985	-8.734312
1448132895210	-1.4445648193359375	9.44024658203125	-2.81121826171875	-7.508844933695812	0	-13.427734	-38.24005	-0.7965088	54.513794	-108.50275	-9.186269
1448132895250	-1.5147857666015625	8.43572998046875	-3.6610107421875	-8.00107141488159	0	-14.028931	-38.54065	-0.19683838	55.148895	-110.39846	-10.56362
1448132895290	-1.5778656005859375	8.1953125	-3.52056884765625	-8.046805110884279	0	-13.7283325	-38.690186	0.7034302	55.355194	-111.159996	-11.098615
1448132895331	-1.7504425048828125	8.277435302734375	-3.269439697265625	-8.001730724793084	0	-12.527466	-38.24005	1.6036987	55.28589	-111.43036	-11.233393
1448132895371	-1.5957183837890625	8.367889404296875	-3.150421142578125	-7.911972102980624	0	-12.678528	-38.24005	0.40283203	55.221527	-111.36935	-11.172944
1448132895412	-1.7468719482421875	8.655914306640625	-3.3658447265625	-7.924261658511962	0	-13.578796	-39.440918	0.55389404	54.690308	-110.5981	-10.574445
1448132895452	-1.4719390869140625	8.8046875	-3.138519287109375	-7.758618279872458	0	-13.7283325	-38.54065	-0.3463745	54.068054	-109.58291	-9.77279
1448132895492	-1.4183807373046875	9.1617431640625	-2.904052734375	-7.606756893689276	0	-13.427734	-38.54065	-0.7965088	53.284668	-108.2804	-8.742259
1448132895532	-1.0351409912109375	10.65185546875	-2.586273193359375	-7.155102067853024	0	-13.128662	-37.490845	-1.8463135	52.707092	-106.98095	-7.7610717
1448132895573	-0.6078643798828125	10.50665283203125	-3.083770751953125	-7.196041113440397	0	-13.7283325	-38.990784	-1.3961792	53.243774	-106.59824	-7.623767
1448132895613	-2.2277069091796875	8.1524658203125	-4.269195556640625	-8.519913031661474	0	-12.9776	-38.690186	-0.9460449	53.75348	-107.000404	-7.969463
1448132895654	-1.6421356201171875	9.460479736328125	-2.038787841796875	-7.402529228493041	0	-13.7283325	-37.789917	-0.3463745	54.352325	-108.5168	-9.234806
1448132895694	-1.2160491943359375	9.22601318359375	-3.43963623046875	-7.26043505392577	0	-12.078857	-38.990784	0.2532959	54.446167	-108.98913	-9.59724
1448132895735	-1.2327117919921875	8.357177734375	-3.778839111328125	-7.9774945270830635	0	-12.9776	-38.090515	0.7034302	55.142517	-110.53653	-10.629974
1448132895775	-1.8301849365234375	8.50714111328125	-3.43011474609375	-8.004700604732866	0	-12.9776	-39.590454	1.0040283	55.568176	-111.09719	-10.933721
1448132895816	-1.9860992431640625	8.413116455078125	-3.20159912109375	-8.010655098055535	0	-12.228394	-38.83972	2.053833	55.521362	-111.32965	-10.915437
1448132895856	-1.7742462158203125	8.355987548828125	-3.098052978515625	-7.940135868415311	0	-11.628723	-39.289856	1.4541626	55.409973	-111.14759	-10.803461
1448132895896	-1.5826263427734375	8.622589111328125	-3.33966064453125	-7.882983062035625	0	-12.527466	-37.64038	0.8529663	55.097168	-110.57188	-10.506179
1448132895938	-1.4540863037109375	8.84991455078125	-3.381317138671875	-7.802975507137518	0	-12.678528	-38.24005	-0.64697266	53.833527	-109.060104	-9.388229
1448132895979	-1.3886260986328125	9.153411865234375	-2.900482177734375	-7.6010833737042045	0	-13.278198	-38.690186	-0.9460449	53.326843	-108.35266	-8.879345
1448132896019	-0.4828948974609375	11.352874755859375	-2.824310302734375	-6.970111051376357	0	-13.7283325	-38.24005	-2.445984	52.56845	-106.952675	-7.889385
1448132896059	-0.7661590576171875	9.64495849609375	-3.2706298828125	-7.438442582161383	0	-13.278198	-37.789917	-0.9460449	53.39612	-106.88274	-8.014284
1448132896100	-2.6311798095703125	8.1524658203125	-3.143280029296875	-8.264521538492508	0	-12.678528	-37.190247	-0.9460449	53.792877	-107.503876	-8.524273
1448132896141	-1.3493499755859375	9.9044189453125	-2.0899658203125	-7.263943289113911	0	-12.37793	-38.090515	-0.19683838	54.384766	-109.2864	-10.076801
1448132896181	-1.5207366943359375	8.7999267578125	-4.11328125	-8.027299909100051	0	-11.927795	-38.391113	1.1535645	54.891327	-109.946175	-10.543225
1448132896222	-1.4528961181640625	7.851348876953125	-4.024017333984375	-8.265679682525832	0	-11.328125	-38.391113	2.053833	55.625336	-111.630844	-11.7624235
1448132896262	-2.0384674072265625	8.06201171875	-3.456298828125	-8.204337386257034	0	-11.178589	-37.789917	2.2033691	55.792114	-111.90994	-11.91205
1448132896303	-1.9146881103515625	8.2286376953125	-2.99688720703125	-7.985319577349581	0	-11.328125	-38.090515	1.7532349	55.602783	-111.902145	-11.632345
1448132896343	-1.9039764404296875	8.277435302734375	-3.188507080078125	-8.021956679269898	0	-11.328125	-38.83972	1.4541626	55.40631	-111.295906	-11.278795
1448132896383	-1.6314239501953125	8.724945068359375	-3.336090087890625	-7.868190592709208	0	-11.477661	-38.83972	1.1535645	55.204132	-110.814476	-10.989865
1448132896424	-1.5147857666015625	8.93560791015625	-3.159942626953125	-7.74241020334816	0	-12.9776	-38.24005	-0.9460449	53.87256	-108.8063	-9.416407
1448132896464	-0.4674224853515625	11.47784423828125	-2.479156494140625	-6.885767026550634	0	-13.278198	-38.090515	-2.1469116	52.792206	-107.11297	-8.00439
1448132896504	-0.0937042236328125	11.705169677734375	-2.667205810546875	-6.8159044883247155	0	-13.7283325	-37.64038	-2.2964478	52.710327	-105.92474	-7.135861
1448132896545	-2.5633392333984375	7.608551025390625	-3.664581298828125	-8.631597662485703	0	-13.578796	-38.990784	-1.5472412	54.001923	-106.40882	-7.6730304
1448132896585	-3.1001129150390625	8.06915283203125	-3.0325927734375	-8.415037157885175	0	-12.9776	-37.789917	-0.3463745	54.439423	-107.574	-8.672431
1448132896625	-1.0244293212890625	9.867523193359375	-3.056396484375	-7.401044474202411	0	-12.9776	-39.289856	-0.3463745	54.641113	-108.26353	-9.331101
1448132896666	-1.1065521240234375	8.282196044921875	-3.90142822265625	-7.997120600216132	0	-12.078857	-38.090515	1.0040283	55.125336	-109.324776	-10.101793
1448132896707	-1.1613006591796875	8.501190185546875	-3.894287109375	-7.950366604924858	0	-12.078857	-38.090515	1.7532349	55.893036	-110.17869	-10.747003
1448132896747	-1.9718170166015625	8.667816162109375	-3.478912353515625	-8.012976072864719	0	-12.37793	-38.391113	1.7532349	56.01364	-110.76725	-10.92211
1448132896787	-1.7433013916015625	8.29766845703125	-2.829071044921875	-7.8764974067403015	0	-12.078857	-38.690186	1.6036987	55.933533	-110.9736	-10.9036455
1448132896827	-1.7016448974609375	8.3524169921875	-2.9659423828125	-7.887008972746001	0	-12.37793	-38.54065	1.902771	55.996613	-110.81062	-10.88649
1448132896868	-1.5076446533203125	8.68328857421875	-3.44677734375	-7.8755726627651175	0	-12.078857	-39.289856	0.7034302	55.39023	-110.00171	-10.362126
1448132896908	-1.7218780517578125	8.66900634765625	-3.083770751953125	-7.8410574428557105	0	-12.527466	-37.94098	-0.3463745	54.557037	-109.11459	-9.742817
1448132896949	-1.6135711669921875	8.853485107421875	-2.988555908203125	-7.777300305283479	0	-13.578796	-39.14032	-0.7965088	54.10901	-108.53202	-9.364823
1448132896989	-1.1946258544921875	10.236480712890625	-2.817169189453125	-7.311668003142106	0	-12.828064	-38.990784	-1.8463135	53.33011	-107.18379	-8.46133
1448132897030	-0.5638275146484375	10.204345703125	-3.26348876953125	-7.2813219125519435	0	-13.128662	-39.590454	-1.5472412	53.898773	-106.78348	-8.2803
1448132897071	-2.7192535400390625	8.065582275390625	-3.33966064453125	-8.390030873264452	0	-12.37793	-38.24005	-0.19683838	54.51358	-108.028946	-9.264533
1448132897111	-1.5266876220703125	9.594970703125	-2.4422607421875	-7.434676236708441	0	-12.828064	-38.54065	0.40283203	54.828766	-109.05177	-10.125917
1448132897152	-1.1660614013671875	9.646148681640625	-3.062347412109375	-7.478996110124392	0	-12.078857	-38.090515	0.8529663	54.979614	-109.5587	-10.47911
1448132897192	-1.3100738525390625	8.128662109375	-3.897857666015625	-8.097585491337094	0	-11.927795	-39.14032	1.902771	55.834778	-110.98923	-11.427566
1448132897232	-1.7444915771484375	8.5238037109375	-3.688385009765625	-8.048496725438623	0	-11.477661	-39.73999	2.3529053	56.09738	-111.59419	-11.621474
1448132897272	-2.0122833251953125	8.553558349609375	-3.284912109375	-8.00206047008134	0	-11.927795	-39.289856	2.053833	56.074066	-111.72877	-11.58433
1448132897313	-1.7718658447265625	8.4285888671875	-3.176605224609375	-7.94109261651111	0	-11.927795	-37.789917	2.053833	56.214417	-111.59474	-11.430206
1448132897354	-1.6528472900390625	8.679718017578125	-3.3753662109375	-7.895708973122338	0	-12.828064	-37.190247	1.4541626	56.1019	-111.19707	-11.143372
1448132897394	-1.6480865478515625	8.585693359375	-3.355133056640625	-7.9138576100053095	0	-11.927795	-39.14032	1.4541626	55.716827	-110.61819	-10.648661
1448132897435	-1.6302337646484375	8.503570556640625	-3.250396728515625	-7.903197766241575	0	-12.228394	-38.83972	0.8529663	55.137634	-109.771385	-9.960124
1448132897475	-1.6647491455078125	9.05224609375	-3.1087646484375	-7.738090319141656	0	-12.828064	-37.64038	-0.49591064	54.75058	-109.19585	-9.520017
1448132897515	-0.9684906005859375	11.012481689453125	-2.7802734375	-7.111471496316513	0	-14.028931	-38.54065	-1.6967773	53.661407	-107.02204	-7.921355
1448132897555	-0.3864898681640625	10.898223876953125	-2.679107666015625	-7.007917034251031	0	-13.7283325	-38.690186	-0.9460449	54.092255	-106.688866	-7.6783147
1448132897596	-2.5478668212890625	7.480010986328125	-3.818115234375	-8.751124310718591	0	-12.678528	-38.391113	-0.3463745	54.913452	-107.884056	-8.52718
1448132897636	-1.0041961669921875	9.967498779296875	-2.161376953125	-7.198549835762416	0	-13.877869	-38.54065	0.2532959	55.214417	-108.75216	-9.304814
1448132897676	-1.5409698486328125	8.94989013671875	-3.255157470703125	-7.76852178330104	0	-12.678528	-38.24005	0.8529663	55.45926	-109.324905	-9.873827
1448132897717	-1.5016937255859375	8.584503173828125	-4.100189208984375	-8.07957358466704	0	-12.527466	-38.391113	1.4541626	56.07074	-110.12186	-10.611523
1448132897758	-1.9373016357421875	8.76422119140625	-3.536041259765625	-7.992522191332897	0	-12.678528	-38.090515	2.2033691	56.420044	-111.142105	-11.152028
1448132897798	-1.9075469970703125	8.5999755859375	-3.170654296875	-7.975868518108387	0	-11.628723	-38.990784	1.902771	56.371063	-111.31207	-11.190852
1448132897838	-1.7171173095703125	8.48095703125	-3.174224853515625	-7.911972102980624	0	-12.078857	-38.83972	2.3529053	56.45529	-111.445335	-11.268882
1448132897878	-1.5421600341796875	8.48333740234375	-3.4324951171875	-7.9334523146915075	0	-12.37793	-38.391113	1.7532349	56.45871	-111.18461	-11.012906
1448132897919	-1.4148101806640625	8.655914306640625	-3.386077880859375	-7.843177924867607	0	-12.078857	-38.990784	1.902771	56.326233	-111.00984	-10.776654
1448132897959	-1.3433990478515625	8.585693359375	-3.274200439453125	-7.814592502004494	0	-13.427734	-38.090515	0.55389404	55.73407	-110.115074	-9.794233
1448132897999	-1.4505157470703125	8.555938720703125	-3.32061767578125	-7.843177924867607	0	-11.927795	-37.789917	0.55389404	55.471344	-109.66901	-9.414576
1448132898040	-1.2981719970703125	9.793731689453125	-2.838592529296875	-7.428162032953994	0	-14.028931	-38.090515	-1.0971069	54.420532	-107.77051	-7.988067
1448132898080	-0.9089813232421875	10.941070556640625	-2.783843994140625	-7.114343467041483	0	-14.028931	-38.391113	-1.5472412	54.15033	-107.16528	-7.5023417
1448132898121	-0.8113861083984375	9.1903076171875	-3.21112060546875	-7.533320232061105	0	-13.877869	-37.94098	-0.7965088	55.14337	-107.2512	-7.5628505
1448132898161	-2.4347991943359375	7.915618896484375	-3.495574951171875	-8.397612863445318	0	-14.477539	-38.690186	-0.3463745	55.53589	-107.8656	-8.032346
1448132898201	-1.3112640380859375	10.079376220703125	-2.161376953125	-7.236242976259486	0	-12.828064	-38.54065	0.2532959	56.03647	-108.90799	-9.274011
1448132898242	-1.4766998291015625	8.905853271484375	-3.538421630859375	-7.834106194807335	0	-13.278198	-37.64038	1.3031006	56.568512	-109.73996	-10.150224
1448132898282	-1.4540863037109375	8.298858642578125	-3.855010986328125	-8.07750736149301	0	-12.37793	-38.090515	1.902771	57.160736	-110.58634	-10.783083
1448132898322	-1.8242340087890625	8.713043212890625	-3.543182373046875	-7.9774945270830635	0	-12.527466	-39.289856	2.053833	57.29425	-111.143394	-10.948506
1448132898363	-1.8694610595703125	8.51904296875	-3.157562255859375	-7.937905361135663	0	-12.228394	-38.54065	2.9541016	57.38208	-111.40126	-10.944132
1448132898404	-1.5683441162109375	8.344085693359375	-3.209930419921875	-7.918264447926014	0	-12.228394	-38.391113	2.3529053	57.524353	-111.39869	-10.904075
1448132898444	-1.6111907958984375	8.515472412109375	-3.397979736328125	-7.934087815825271	0	-13.427734	-38.090515	2.5039673	57.41623	-111.135544	-10.677205
1448132898485	-1.6052398681640625	8.32623291015625	-3.309906005859375	-7.9596871606562445	0	-13.427734	-38.391113	1.6036987	57.050415	-110.58201	-10.207244
1448132898526	-1.5897674560546875	8.9427490234375	-3.2706298828125	-7.786116967512394	0	-13.278198	-37.490845	0.40283203	56.332703	-109.6177	-9.466844
1448132898567	-1.3053131103515625	10.17340087890625	-2.58270263671875	-7.299532962237359	0	-14.477539	-38.090515	-0.9460449	55.28946	-108.074684	-8.377587
1448132898607	0.3204803466796875	12.086029052734375	-2.914764404296875	-6.725732428175922	0	-14.927673	-37.64038	-1.8463135	54.443787	-106.46218	-7.1716566
1448132898647	0.1086273193359375	10.85418701171875	-2.831451416015625	-6.955045526552392	0	-14.178467	-37.94098	-1.8463135	55.140656	-106.28967	-7.0363264
1448132898689	-2.7275848388671875	7.422882080078125	-3.80621337890625	-8.863687563819052	0	-14.477539	-37.04071	-0.64697266	56.130188	-106.910995	-7.4689894
1448132898730	-1.1136932373046875	10.01629638671875	-2.16851806640625	-7.211588423338382	0	-13.7283325	-38.54065	0.40283203	56.542572	-108.661125	-9.004143
1448132898770	-1.3386383056640625	8.415496826171875	-3.6943359375	-7.967436444736952	0	-12.828064	-38.54065	1.0040283	57.259827	-109.935555	-10.221898
1448132898811	-1.4302825927734375	8.113189697265625	-3.928802490234375	-8.147050478515988	0	-12.37793	-38.690186	2.053833	57.779327	-110.57672	-10.719956
1448132898851	-1.8837432861328125	8.7618408203125	-3.343231201171875	-7.926475979354603	0	-12.527466	-38.54065	1.902771	57.73169	-110.752754	-10.675173
1448132898891	-1.8682708740234375	8.415496826171875	-2.938568115234375	-7.906953233647354	0	-12.37793	-38.090515	1.902771	57.574524	-110.55675	-10.426548
1448132898931	-1.5314483642578125	8.608306884765625	-3.02783203125	-7.794380705475217	0	-12.828064	-38.090515	1.4541626	57.441345	-110.02417	-10.109404
1448132898972	-1.5016937255859375	8.627349853515625	-3.20635986328125	-7.826878740668667	0	-12.828064	-38.690186	0.40283203	56.83905	-109.13095	-9.442648
1448132899012	-1.5552520751953125	9.229583740234375	-2.979034423828125	-7.6397365430163955	0	-13.877869	-38.391113	-0.7965088	55.788452	-107.87593	-8.367184
1448132899052	-0.8447113037109375	11.143402099609375	-2.65887451171875	-7.042578241008279	0	-14.178467	-38.990784	-1.5472412	54.996796	-106.617966	-7.3044434
1448132899092	-0.3234100341796875	10.824432373046875	-2.5374755859375	-6.984624317445366	0	-14.628601	-38.391113	-1.5472412	55.458496	-106.2614	-7.114863
1448132899133	-2.0575103759765625	7.87158203125	-3.552703857421875	-8.302815508175602	0	-13.427734	-38.24005	-0.3463745	56.397614	-107.40763	-8.065881
1448132899173	-1.9111175537109375	9.23553466796875	-2.30419921875	-7.566015724524558	0	-12.37793	-37.789917	0.7034302	56.66156	-108.49884	-9.147241
1448132899213	-1.3029327392578125	9.45452880859375	-3.312286376953125	-7.606756893689276	0	-12.828064	-38.54065	1.1535645	56.956482	-109.51041	-10.114868
1448132899254	-1.2767486572265625	8.096527099609375	-3.778839111328125	-8.062771071734762	0	-12.228394	-38.391113	2.3529053	57.497498	-110.47167	-10.964818
1448132899294	-1.6504669189453125	8.503570556640625	-3.716949462890625	-8.035680980167447	0	-11.628723	-38.24005	2.2033691	57.74298	-111.02689	-11.34267
1448132899334	-2.1491546630859375	8.601165771484375	-3.221832275390625	-8.009330172453836	0	-11.778259	-39.440918	2.5039673	57.659363	-111.160194	-11.360103
1448132899375	-1.7659149169921875	8.31671142578125	-3.0421142578125	-7.9334523146915075	0	-12.527466	-38.090515	2.2033691	57.418488	-111.04763	-11.178458
1448132899415	-1.5171661376953125	8.60711669921875	-3.151611328125	-7.822075061028852	0	-12.228394	-38.54065	1.3031006	57.158478	-110.567764	-10.837219
1448132899455	-1.6397552490234375	8.448822021484375	-3.359893798828125	-7.949405079257211	0	-12.678528	-38.990784	0.8529663	56.520813	-109.82199	-10.208833
1448132899496	-1.5802459716796875	8.8665771484375	-3.14923095703125	-7.772613712011173	0	-12.9776	-37.94098	-0.3463745	55.54883	-108.68683	-9.244676
1448132899536	-1.3695831298828125	10.1376953125	-2.738616943359375	-7.351096947821523	0	-13.7283325	-38.24005	-1.5472412	54.490173	-107.192085	-8.025955
1448132899577	-0.2234344482421875	11.557586669921875	-2.65887451171875	-6.8612175613409825	0	-13.578796	-38.83972	-1.6967773	54.31952	-106.215935	-7.2747087
1448132899617	-1.0184783935546875	8.867767333984375	-3.608642578125	-7.747317027141561	0	-13.7283325	-37.64038	-0.9460449	55.276337	-106.8726	-7.8226376
1448132899657	-2.5466766357421875	8.220306396484375	-2.719573974609375	-8.087863316812953	0	-13.128662	-38.391113	-0.045776367	55.59195	-108.044754	-8.837287
1448132899698	-0.9792022705078125	9.95440673828125	-2.357757568359375	-7.23416012715281	0	-12.527466	-39.289856	0.55389404	55.7959	-108.84121	-9.621383
1448132899738	-1.3505401611328125	8.2476806640625	-3.778839111328125	-8.040728716015359	0	-12.078857	-38.54065	1.4541626	56.74121	-110.247025	-10.897946
1448132899778	-1.8099517822265625	8.48333740234375	-3.847869873046875	-8.125672950104523	0	-11.778259	-38.54065	2.2033691	57.074432	-110.993774	-11.342842
1448132899818	-2.1515350341796875	8.45953369140625	-3.074249267578125	-8.008337118870426	0	-11.477661	-38.990784	2.053833	56.997467	-111.19243	-11.377197
1448132899859	-1.7373504638671875	8.256011962890625	-3.0849609375	-7.953575293871277	0	-11.027527	-38.690186	2.2033691	56.849	-111.24661	-11.2866535
1448132899899	-1.6576080322265625	8.38812255859375	-3.05877685546875	-7.890422119191843	0	-11.477661	-38.83972	2.2033691	56.725647	-110.87267	-11.050818
1448132899939	-1.5742950439453125	8.62139892578125	-3.314666748046875	-7.874648361425923	0	-12.527466	-39.289856	0.2532959	56.171875	-110.13144	-10.451706
1448132899979	-1.5278778076171875	9.10699462890625	-2.971893310546875	-7.660155612008038	0	-12.527466	-37.94098	-0.7965088	54.65811	-108.34781	-8.891491
1448132900020	-0.8304290771484375	10.73516845703125	-2.7564697265625	-7.1329751846378455	0	-13.578796	-38.24005	-1.5472412	54.15558	-107.59896	-8.266785
1448132900060	-0.4626617431640625	10.73040771484375	-2.789794921875	-7.072015744614058	0	-13.7283325	-37.490845	-1.8463135	54.162994	-106.35761	-7.3261614
1448132900100	-1.8873138427734375	9.334320068359375	-3.417022705078125	-7.5003141400569096	0	-13.877869	-39.289856	-1.3961792	54.744995	-106.71886	-7.6143193
1448132900141	-1.9384918212890625	9.215301513671875	-2.088775634765625	-7.528874367352997	0	-12.828064	-39.289856	-0.045776367	55.377808	-108.21873	-8.852298
1448132900181	-1.1458282470703125	9.7615966796875	-3.086151123046875	-7.455086166408899	0	-12.828064	-38.83972	0.40283203	55.564636	-109.03849	-9.435037
1448132900221	-1.1113128662109375	8.6951904296875	-3.7752685546875	-7.855034216125661	0	-11.778259	-38.391113	1.4541626	56.2218	-109.96701	-10.183469
1448132900263	-1.5326385498046875	8.598785400390625	-3.83477783203125	-8.008999093637664	0	-11.927795	-38.391113	1.902771	56.840607	-110.792984	-10.783733
1448132900303	-2.1515350341796875	8.5904541015625	-3.098052978515625	-7.978796375737484	0	-12.527466	-39.14032	2.053833	56.84912	-111.30648	-10.985661
1448132900344	-1.7611541748046875	8.298858642578125	-2.95166015625	-7.912914621822453	0	-12.078857	-38.24005	2.2033691	56.934326	-111.41018	-11.081363
1448132900384	-1.6433258056640625	8.560699462890625	-3.418212890625	-7.935995614620354	0	-11.927795	-38.391113	1.6036987	57.029907	-111.15891	-11.058994
1448132900425	-1.5992889404296875	8.696380615234375	-3.513427734375	-7.9135432284187335	0	-12.527466	-37.490845	1.6036987	56.682983	-110.67197	-10.68687
1448132900465	-1.4564666748046875	8.820159912109375	-3.2420654296875	-7.776420744954478	0	-12.527466	-38.990784	0.7034302	56.089447	-109.95755	-10.063033
1448132900505	-1.5873870849609375	9.05938720703125	-2.98974609375	-7.689466553964934	0	-13.278198	-37.94098	-0.7965088	55.38733	-108.97304	-9.301002
1448132900546	-0.9696807861328125	10.44000244140625	-2.713623046875	-7.207234960533931	0	-13.427734	-36.740112	-1.6967773	54.639343	-107.689445	-8.341079
1448132900586	-0.5269317626953125	10.938690185546875	-2.771942138671875	-7.042578241008279	0	-13.7283325	-37.64038	-1.6967773	54.290985	-106.68836	-7.492828
1448132900627	-0.5043182373046875	9.766357421875	-3.207550048828125	-7.34601284735895	0	-13.877869	-37.339783	-1.0971069	55.090515	-106.95313	-7.7157865
1448132900668	-2.0622711181640625	8.874908447265625	-2.443450927734375	-7.71634011152508	0	-12.828064	-38.090515	0.103759766	55.794464	-108.06168	-8.677862
1448132900708	-1.1374969482421875	9.508087158203125	-3.100433349609375	-7.510917778883243	0	-12.078857	-37.190247	0.55389404	56.34207	-109.32284	-9.8588295
1448132900749	-1.3731536865234375	8.260772705078125	-3.67529296875	-8.014303693636377	0	-11.778259	-38.090515	1.1535645	56.821167	-110.13861	-10.532693
1448132900789	-1.5195465087890625	8.4857177734375	-3.62054443359375	-7.9774945270830635	0	-12.078857	-37.64038	1.902771	57.174866	-110.60238	-10.826611
1448132900829	-1.9789581298828125	8.65234375	-3.19683837890625	-7.942049855538624	0	-11.628723	-38.24005	1.7532349	57.020935	-110.72175	-10.732804
1448132900870	-1.7397308349609375	8.501190185546875	-3.01116943359375	-7.87003347209754	0	-12.228394	-38.090515	1.6036987	56.849426	-110.49293	-10.529236
1448132900910	-1.5766754150390625	8.6571044921875	-2.962371826171875	-7.777300305283479	0	-11.328125	-39.590454	1.6036987	56.734406	-110.25162	-10.389162
1448132900951	-1.5754852294921875	8.653533935546875	-3.29681396484375	-7.862060275229395	0	-13.427734	-38.090515	0.2532959	55.843506	-109.14746	-9.542847
1448132900991	-1.4755096435546875	9.260528564453125	-2.948089599609375	-7.6072979922509365	0	-13.578796	-38.090515	-0.64697266	54.88086	-108.00391	-8.571384
1448132901032	-0.7078399658203125	11.09222412109375	-2.84454345703125	-7.060722963743244	0	-13.877869	-37.490845	-1.3961792	54.184692	-106.8421	-7.582154
1448132901073	-0.2996063232421875	10.365020751953125	-2.795745849609375	-7.110367706761607	0	-14.028931	-37.94098	-1.5472412	54.736115	-106.63716	-7.494934
1448132901113	-2.3253021240234375	7.8192138671875	-3.493194580078125	-8.392132904912264	0	-13.278198	-37.789917	-0.7965088	55.46985	-107.695145	-8.362035
1448132901153	-1.4933624267578125	9.619964599609375	-2.20660400390625	-7.373495364160162	0	-12.9776	-37.789917	0.103759766	55.7695	-108.55645	-9.258589
1448132901194	-1.6100006103515625	9.20458984375	-3.342041015625	-7.744429246213244	0	-12.527466	-37.339783	1.0040283	56.138824	-109.478645	-10.122552
1448132901234	-1.4409942626953125	8.35955810546875	-3.75146484375	-8.075443604459632	0	-11.778259	-37.789917	1.1535645	56.37317	-109.94675	-10.527068
1448132901274	-1.7397308349609375	8.7713623046875	-3.681243896484375	-7.976193604348425	0	-11.927795	-38.990784	1.7532349	56.837708	-110.93459	-11.241766
1448132901315	-1.9944305419921875	8.52618408203125	-3.13494873046875	-7.963557729847111	0	-12.078857	-38.24005	2.2033691	56.687897	-111.20209	-11.255549
1448132901355	-1.6302337646484375	8.541656494140625	-3.119476318359375	-7.859307928652505	0	-11.027527	-37.94098	1.902771	56.643066	-111.135704	-11.189453
1448132901396	-1.6242828369140625	8.646392822265625	-3.27301025390625	-7.8703407891903225	0	-12.228394	-38.83972	1.6036987	56.508392	-110.776855	-10.961575
1448132901436	-1.6100006103515625	8.627349853515625	-3.307525634765625	-7.880509761096734	0	-12.828064	-37.490845	1.0040283	56.068695	-110.22615	-10.45115
1448132901477	-1.4279022216796875	8.929656982421875	-3.159942626953125	-7.722898453763336	0	-12.228394	-38.090515	0.2532959	54.995453	-108.83346	-9.130145
1448132901517	-1.2112884521484375	9.289093017578125	-2.895721435546875	-7.530181073290152	0	-13.128662	-37.490845	-0.49591064	54.585663	-108.18284	-8.557832
1448132901558	-0.6459503173828125	11.240997314453125	-2.857635498046875	-7.024979698984162	0	-13.427734	-38.54065	-1.8463135	54.034363	-106.98321	-7.5283904
1448132901598	-1.0672760009765625	9.017730712890625	-3.2420654296875	-7.033765008226857	0	-12.828064	-38.24005	-1.2466431	54.890686	-106.92686	-7.6489115
1448132901638	-3.2691192626953125	7.777557373046875	-3.43011474609375	-8.76817650052697	0	-13.578796	-38.24005	0.55389404	55.91562	-108.29687	-8.913303
1448132901679	-1.8599395751953125	9.41168212890625	-2.22088623046875	-7.4977352739404175	0	-12.9776	-39.440918	0.7034302	56.33383	-109.514175	-10.104719
1448132901719	-1.5112152099609375	8.636871337890625	-3.766937255859375	-7.973919211627319	0	-11.628723	-38.990784	1.902771	56.560333	-110.69002	-11.0174055
1448132901759	-1.3910064697265625	8.09295654296875	-3.850250244140625	-8.117902327501586	0	-11.477661	-38.83972	2.6535034	56.898468	-111.46904	-11.582281
1448132901799	-1.8278045654296875	8.49285888671875	-3.66815185546875	-8.010323775037039	0	-11.927795	-39.590454	1.7532349	56.858276	-111.59605	-11.424033
1448132901840	-1.9111175537109375	8.615447998046875	-2.919525146484375	-7.861142393715154	0	-12.37793	-38.54065	1.7532349	56.49417	-110.96367	-10.596869
1448132901880	-1.5635833740234375	8.80230712890625	-3.018310546875	-7.752235570788908	0	-12.228394	-39.14032	1.0040283	56.244476	-110.17424	-9.957896
1448132901920	-1.4814605712890625	8.789215087890625	-3.25396728515625	-7.793198094903724	0	-12.678528	-37.94098	0.7034302	55.960632	-109.70584	-9.579734
1448132901961	-1.3207855224609375	9.441436767578125	-2.88739013671875	-7.518967794334404	0	-12.527466	-38.090515	-0.64697266	54.60077	-107.939026	-8.155586
1448132902001	-0.4936065673828125	11.175537109375	-2.836212158203125	-7.00557904617101	0	-13.7283325	-37.64038	-1.5472412	53.982117	-106.826866	-7.2819595
1448132902041	-0.4912261962890625	10.185302734375	-3.05401611328125	-7.229768529995667	0	-13.877869	-38.24005	-1.2466431	54.152283	-106.65515	-7.2155104
1448132902081	-2.5109710693359375	7.989410400390625	-3.347991943359375	-8.346994783616024	0	-13.128662	-38.090515	-0.19683838	55.421875	-107.891075	-8.490012
1448132902122	-1.5612030029296875	9.510467529296875	-2.19708251953125	-7.408229301622466	0	-12.828064	-38.391113	0.103759766	55.658325	-108.35336	-8.996086
1448132902163	-1.3731536865234375	8.83563232421875	-3.47296142578125	-7.809222416288281	0	-12.9776	-38.83972	0.7034302	55.87204	-109.5997	-10.147769
1448132902203	-1.3041229248046875	8.177459716796875	-3.7467041015625	-8.038371312745523	0	-12.078857	-38.690186	1.1535645	56.30719	-110.27648	-10.7099495
1448132902244	-1.8789825439453125	8.801116943359375	-3.666961669921875	-7.922681594237607	0	-11.477661	-38.391113	1.4541626	56.44568	-110.55194	-10.807536
1448132902285	-1.7873382568359375	8.582122802734375	-2.93975830078125	-7.843177924867607	0	-11.927795	-38.391113	1.6036987	56.299805	-110.51005	-10.639046
1448132902325	-1.6885528564453125	8.68804931640625	-2.9373779296875	-7.791130196139511	0	-12.9776	-38.83972	0.7034302	56.19409	-110.19739	-10.411408
1448132902365	-1.5873870849609375	8.815399169921875	-3.18017578125	-7.794676466733653	0	-12.078857	-38.54065	1.1535645	56.077606	-109.9548	-10.250358
1448132902406	-1.4755096435546875	8.9046630859375	-3.09210205078125	-7.7240411433043334	0	-13.128662	-37.789917	-0.045776367	55.235718	-108.98624	-9.409907
1448132902446	-1.2005767822265625	9.848480224609375	-2.88739013671875	-7.406493063702356	0	-13.278198	-39.289856	-1.0971069	54.45288	-108.05177	-8.615462
1448132902486	-0.6388092041015625	10.817291259765625	-2.833831787109375	-7.096498476338075	0	-13.427734	-37.64038	-1.3961792	53.93036	-107.09557	-7.8479657
1448132902527	-0.9815826416015625	9.072479248046875	-3.30157470703125	-7.6181480586921575	0	-13.7283325	-38.54065	-0.3463745	54.877655	-107.34972	-8.239156
1448132902567	-2.4883575439453125	8.586883544921875	-2.550567626953125	-7.922997501057232	0	-12.828064	-38.391113	-0.19683838	55.1828	-107.83031	-8.716816
1448132902608	-1.8028106689453125	9.328369140625	-2.586273193359375	-7.584149712969868	0	-12.678528	-38.990784	-0.045776367	55.332184	-108.315155	-9.178213
1448132902648	-1.3076934814453125	8.567840576171875	-3.971649169921875	-7.993178392980637	0	-11.178589	-38.24005	1.3031006	56.10971	-110.22949	-10.615836
1448132902688	-1.4362335205078125	8.4000244140625	-3.7657470703125	-8.018292469612067	0	-11.628723	-38.690186	1.6036987	56.42459	-110.63237	-10.891193
1448132902729	-1.9503936767578125	8.6094970703125	-3.264678955078125	-7.964203615267181	0	-11.927795	-38.54065	1.902771	56.683533	-111.326645	-11.091929
1448132902769	-1.8408966064453125	8.489288330078125	-3.04449462890625	-7.908206707047624	0	-12.078857	-38.54065	2.2033691	56.74243	-111.346596	-10.995748
1448132902809	-1.7837677001953125	8.379791259765625	-3.0516357421875	-7.923945539568449	0	-12.37793	-38.54065	1.902771	56.801117	-111.24457	-10.935889
1448132902849	-1.5469207763671875	8.755889892578125	-3.347991943359375	-7.841663061355005	0	-12.527466	-38.83972	1.7532349	56.453278	-110.84709	-10.647061
1448132902890	-1.5266876220703125	8.67852783203125	-3.31109619140625	-7.846818374778789	0	-12.37793	-38.54065	0.55389404	55.83023	-109.83667	-9.774415
1448132902930	-1.5945281982421875	8.8856201171875	-3.03021240234375	-7.74241020334816	0	-12.828064	-37.94098	-0.19683838	55.03647	-108.7847	-8.949445
1448132902971	-1.1244049072265625	10.169830322265625	-2.98974609375	-7.345771009336678	0	-13.578796	-38.090515	-1.2466431	54.284454	-107.468414	-7.900709
1448132903011	-0.4471893310546875	11.371917724609375	-3.0849609375	-7.00664152601245	0	-13.278198	-38.391113	-1.3961792	54.179993	-106.941925	-7.4974594
1448132903051	-1.4695587158203125	8.729705810546875	-3.06353759765625	-7.758037211831105	0	-13.427734	-38.24005	-0.19683838	55.59149	-107.51976	-8.231822
1448132903092	-2.5788116455078125	8.395263671875	-3.00164794921875	-8.128862214424304	0	-13.128662	-38.83972	0.7034302	56.179443	-108.90143	-9.481308
1448132903132	-1.0637054443359375	9.365264892578125	-3.233734130859375	-7.555416907183511	0	-12.078857	-38.990784	1.4541626	56.504333	-110.02366	-10.296629
1448132903173	-1.2350921630859375	7.843017578125	-3.857391357421875	-8.148126588209148	0	-13.128662	-38.690186	2.053833	56.788177	-110.85352	-10.784591
1448132903213	-1.3695831298828125	8.455963134765625	-3.550323486328125	-7.926159488163827	0	-12.078857	-38.54065	2.3529053	57.068817	-111.05546	-10.850511
1448132903254	-1.9242095947265625	8.68328857421875	-3.159942626953125	-7.909461008639835	0	-11.477661	-39.14032	1.6036987	56.976013	-111.003395	-10.691036
1448132903296	-1.7754364013671875	8.78802490234375	-2.848114013671875	-7.765895590413768	0	-12.228394	-39.440918	1.3031006	56.499878	-110.30113	-9.989982
1448132903337	-1.5635833740234375	8.832061767578125	-2.83740234375	-7.701587874190581	0	-13.128662	-39.73999	1.0040283	56.37851	-109.913475	-9.760053
1448132903377	-1.3172149658203125	9.233154296875	-3.04449462890625	-7.599465046684177	0	-13.427734	-38.54065	-0.7965088	55.485046	-108.562744	-8.807924
1448132903417	-0.6507110595703125	9.715179443359375	-3.150421142578125	-7.467010593957309	0	-13.128662	-38.54065	-1.2466431	54.61966	-107.57056	-7.919033
1448132903458	-0.5804901123046875	10.30670166015625	-3.08258056640625	-7.2290758039069125	0	-12.828064	-38.090515	-1.2466431	54.764526	-106.917854	-7.495837
1448132903499	-1.0922698974609375	9.117706298828125	-3.25872802734375	-7.623320729264476	0	-13.7283325	-39.289856	-0.7965088	55.18988	-107.2052	-7.806677
1448132903539	-1.6468963623046875	9.212921142578125	-2.460113525390625	-7.546973647064007	0	-13.278198	-38.990784	-0.19683838	55.740845	-108.357574	-8.938511
1448132903580	-1.1862945556640625	9.20220947265625	-3.34442138671875	-7.6452361874331665	0	-12.9776	-38.391113	0.2532959	55.804443	-108.68468	-9.1856
1448132903620	-1.1160736083984375	8.734466552734375	-3.5086669921875	-7.779354096773547	0	-12.228394	-38.54065	1.1535645	56.326355	-109.55884	-9.761317
1448132903660	-1.4052886962890625	8.8284912109375	-3.612213134765625	-7.854424449522325	0	-12.678528	-38.54065	1.0040283	56.737335	-109.974724	-9.965604
1448132903701	-1.7730560302734375	8.782073974609375	-3.409881591796875	-7.909461008639835	0	-12.678528	-39.14032	1.4541626	56.793243	-110.132965	-10.0014105
1448132903741	-1.6207122802734375	8.7713623046875	-2.936187744140625	-7.75368444394967	0	-12.527466	-39.289856	1.7532349	56.877228	-110.24315	-10.052579
1448132903781	-1.6100006103515625	8.748748779296875	-3.140899658203125	-7.8071379446605675	0	-12.37793	-39.440918	1.3031006	56.89792	-110.20675	-10.073644
1448132903822	-1.4850311279296875	8.824920654296875	-3.2991943359375	-7.796451948131757	0	-12.527466	-38.391113	0.8529663	56.602173	-109.93955	-9.899937
1448132903862	-1.5600128173828125	8.627349853515625	-3.2135009765625	-7.843481037845563	0	-12.37793	-38.54065	1.0040283	56.195953	-109.587364	-9.60472
1448132903902	-1.5980987548828125	8.81182861328125	-3.12066650390625	-7.872801084116988	0	-12.527466	-39.14032	0.103759766	55.942047	-109.30664	-9.39675
1448132903943	-1.2826995849609375	9.289093017578125	-2.97308349609375	-7.563096058277713	0	-13.7283325	-39.73999	-0.9460449	54.96707	-107.95874	-8.345135
1448132903983	-0.5602569580078125	10.52093505859375	-2.952850341796875	-7.159369794900892	0	-13.427734	-39.590454	-1.2466431	54.387207	-107.08475	-7.4752116
1448132904023	-0.6804656982421875	10.2567138671875	-3.252777099609375	-7.291948718144813	0	-14.028931	-38.54065	-0.9460449	54.727783	-107.05856	-7.4509068
1448132904064	-2.0622711181640625	8.65234375	-2.75885009765625	-7.8492491029507026	0	-13.128662	-38.690186	-0.045776367	55.57733	-107.914024	-8.353087
1448132904104	-1.7313995361328125	9.3426513671875	-2.671966552734375	-7.584149712969868	0	-12.078857	-38.990784	1.1535645	56.1062	-109.08208	-9.428266
1448132904144	-1.4171905517578125	8.0096435546875	-3.913330078125	-8.16979734701929	0	-12.078857	-39.440918	1.6036987	56.455322	-110.3552	-10.340048
1448132904185	-1.3445892333984375	7.91680908203125	-3.69671630859375	-8.110869024863005	0	-11.778259	-39.440918	1.7532349	56.781128	-111.152725	-10.924384
1448132904226	-1.7552032470703125	8.434539794921875	-3.3134765625	-7.9719719762983114	0	-12.678528	-38.54065	2.3529053	56.807343	-111.33243	-10.963533
1448132904266	-1.8397064208984375	8.465484619140625	-3.176605224609375	-7.949405079257211	0	-12.078857	-38.990784	1.7532349	56.52527	-111.03504	-10.577259
1448132904306	-1.5992889404296875	8.7618408203125	-2.950469970703125	-7.7542642796122045	0	-12.678528	-38.54065	0.8529663	55.929535	-109.80564	-9.978199
1448132904346	-1.4243316650390625	9.0284423828125	-3.00640869140625	-7.662374725835182	0	-13.278198	-38.690186	-0.045776367	55.573914	-109.19993	-9.124831
1448132904386	-0.9280242919921875	10.017486572265625	-2.93499755859375	-7.3257806350159855	0	-13.427734	-37.490845	-1.0971069	54.682465	-107.89205	-8.021296
1448132904427	-0.3257904052734375	11.47784423828125	-2.7659912109375	-6.9107300750775575	0	-14.028931	-38.83972	-1.8463135	54.179504	-106.480415	-6.8952885
1448132904467	-0.1532135009765625	10.5137939453125	-3.012359619140625	-7.095839806770928	0	-14.178467	-38.690186	-1.2466431	54.711853	-106.64528	-7.096059
1448132904507	-2.5288238525390625	8.2572021484375	-2.621978759765625	-8.390030873264452	0	-13.7283325	-38.54065	-0.49591064	55.69037	-107.77054	-8.13027
1448132904548	-1.0660858154296875	9.624725341796875	-2.38751220703125	-7.3224246198515015	0	-12.527466	-39.14032	0.8529663	56.05426	-108.718765	-9.076561
1448132904588	-1.3422088623046875	8.893951416015625	-3.69195556640625	-7.841965940612683	0	-12.37793	-38.690186	1.3031006	56.337646	-109.67404	-9.756902
1448132904629	-1.3112640380859375	8.61663818359375	-3.580078125	-7.8764974067403015	0	-13.278198	-38.83972	1.7532349	57.02472	-110.45123	-10.254928
1448132904669	-1.4957427978515625	8.871337890625	-3.51104736328125	-7.8407547035709575	0	-12.678528	-38.690186	2.053833	57.057495	-110.49956	-10.173916
1448132904709	-1.9194488525390625	8.703521728515625	-2.914764404296875	-7.839544212362117	0	-12.828064	-38.090515	1.3031006	56.74121	-110.254845	-9.784044
1448132904750	-1.5933380126953125	8.986785888671875	-2.87786865234375	-7.6816107709372226	0	-12.678528	-38.83972	1.1535645	56.54776	-109.8178	-9.576631
1448132904790	-1.4171905517578125	8.770172119140625	-3.2230224609375	-7.7743699179361325	0	-12.828064	-39.14032	0.55389404	56.04126	-109.31519	-9.242447
1448132904831	-1.5338287353515625	8.8189697265625	-3.18255615234375	-7.78111614697446	0	-13.278198	-38.990784	-0.19683838	55.276	-108.69104	-8.752291
1448132904871	-1.3660125732421875	9.474761962890625	-2.99688720703125	-7.545657235882079	0	-13.128662	-37.94098	-0.64697266	54.852875	-108.27577	-8.429544
1448132904911	-0.5281219482421875	10.564971923828125	-3.043304443359375	-7.1620687499999995	0	-13.877869	-38.690186	-1.2466431	54.010956	-107.02561	-7.4732413
1448132904952	-1.0018157958984375	9.358123779296875	-3.34442138671875	-7.567875676489021	0	-13.427734	-39.440918	-1.2466431	54.328796	-107.15057	-7.566798
1448132904992	-1.8420867919921875	8.70709228515625	-2.87310791015625	-7.808626631056406	0	-13.128662	-39.14032	-0.64697266	54.52823	-107.82253	-8.0206175
1448132905032	-1.0970306396484375	9.450958251953125	-2.548187255859375	-7.397089602337164	0	-13.427734	-38.391113	-0.045776367	54.592773	-108.380646	-8.392385
1448132905073	-1.0827484130859375	9.04510498046875	-3.189697265625	-7.6219583127300226	0	-12.9776	-37.94098	0.103759766	54.83017	-108.97792	-8.807986
1448132905114	-1.6540374755859375	8.7999267578125	-3.343231201171875	-7.8565594668175	0	-12.678528	-37.94098	0.2532959	55.292175	-109.572914	-9.356625
1448132905154	-1.9015960693359375	8.686859130859375	-3.27777099609375	-7.933770038303079	0	-12.527466	-38.690186	0.8529663	55.44635	-110.06048	-9.769478
1448132905195	-1.4909820556640625	8.528564453125	-3.0849609375	-7.81847991812342	0	-12.228394	-38.090515	0.8529663	55.33426	-110.29648	-9.909229
1448132905235	-1.5124053955078125	8.566650390625	-3.124237060546875	-7.824175238610476	0	-12.828064	-38.990784	0.2532959	55.17267	-110.14078	-9.827475
1448132905276	-1.2934112548828125	8.732086181640625	-3.18017578125	-7.74298687116315	0	-12.678528	-39.289856	-0.19683838	54.75647	-109.66616	-9.423498
1448132905316	-1.3576812744140625	9.072479248046875	-2.957611083984375	-7.625502365860611	0	-13.427734	-38.24005	-0.7965088	54.03183	-108.92463	-8.71655
1448132905356	-1.2874603271484375	9.503326416015625	-2.86834716796875	-7.494129692969348	0	-13.427734	-38.690186	-1.3961792	53.29547	-107.95514	-7.916778
1448132905397	-0.6995086669921875	10.060333251953125	-3.0897216796875	-7.302382975604263	0	-13.578796	-38.24005	-1.8463135	53.352478	-107.13971	-7.3354974
1448132905437	-1.0851287841796875	9.1236572265625	-3.626495361328125	-7.706115988860022	0	-13.877869	-38.990784	-1.3961792	53.630127	-107.3898	-7.515669
1448132905477	-1.4481353759765625	9.505706787109375	-2.241119384765625	-7.394867836933962	0	-12.678528	-38.83972	-0.64697266	54.108917	-108.30278	-8.369381
1448132905518	-1.4398040771484375	9.00225830078125	-3.30633544921875	-7.743563700170531	0	-12.828064	-38.391113	-0.045776367	54.26599	-108.6524	-8.669473
1448132905558	-1.4064788818359375	8.653533935546875	-3.627685546875	-7.904135938096086	0	-12.828064	-39.289856	-0.19683838	54.62137	-109.431305	-9.268812
1448132905598	-1.5112152099609375	8.718994140625	-3.474151611328125	-7.874340359233279	0	-12.828064	-37.789917	0.7034302	55.12848	-110.149284	-9.74906
1448132905639	-1.7992401123046875	8.667816162109375	-3.307525634765625	-7.919525434690228	0	-13.578796	-37.64038	0.2532959	55.123077	-110.28484	-9.754128
1448132905679	-1.4148101806640625	8.677337646484375	-2.952850341796875	-7.730623814196454	0	-13.427734	-38.690186	1.0040283	55.078247	-110.18929	-9.558036
1448132905720	-1.5100250244140625	8.813018798828125	-3.250396728515625	-7.793493682415546	0	-12.9776	-38.690186	0.40283203	54.83954	-109.80668	-9.301004
1448132905760	-1.4279022216796875	8.865386962890625	-3.114715576171875	-7.727472980061328	0	-13.128662	-39.14032	0.2532959	54.27826	-109.20432	-8.813549
1448132905800	-1.2172393798828125	9.286712646484375	-3.100433349609375	-7.577465657482216	0	-13.278198	-38.990784	-1.2466431	53.52771	-108.40175	-8.145694
1448132905841	-0.6435699462890625	10.29241943359375	-2.962371826171875	-7.220777565815315	0	-13.877869	-37.789917	-0.9460449	53.078033	-107.59143	-7.54979
1448132905881	-1.0637054443359375	9.50213623046875	-3.112335205078125	-7.4987664745795275	0	-13.7283325	-38.391113	-1.0971069	53.37265	-107.511185	-7.5342913
1448132905922	-1.4600372314453125	8.674957275390625	-2.8992919921875	-7.72919102443505	0	-13.7283325	-37.64038	-2.1469116	53.89685	-108.116646	-7.977875
1448132905963	-1.1624908447265625	9.3712158203125	-2.904052734375	-7.503412590949026	0	-13.877869	-38.83972	0.2532959	54.23105	-108.78363	-8.5245695
1448132906003	-1.4064788818359375	9.05224609375	-3.564605712890625	-7.786411518936058	0	-12.678528	-38.83972	0.40283203	54.55371	-109.45585	-9.007352
1448132906044	-1.4469451904296875	8.760650634765625	-3.48724365234375	-7.850465599711464	0	-13.128662	-38.391113	-0.19683838	54.98712	-109.98154	-9.351979
1448132906084	-1.8516082763671875	8.728515625	-3.026641845703125	-7.844390657720311	0	-12.678528	-38.990784	1.3031006	55.206635	-110.341324	-9.513231
1448132906124	-1.7194976806640625	8.661865234375	-2.9468994140625	-7.807733286172278	0	-12.527466	-39.14032	1.0040283	55.253113	-110.47498	-9.557772
1448132906165	-1.4862213134765625	8.68328857421875	-3.190887451171875	-7.805055643866388	0	-12.37793	-38.090515	1.1535645	55.242615	-110.36481	-9.542152
1448132906205	-1.3767242431640625	8.824920654296875	-3.402740478515625	-7.795268119723353	0	-12.678528	-38.090515	1.0040283	54.970947	-110.02962	-9.332061
1448132906245	-1.3636322021484375	8.9522705078125	-3.238494873046875	-7.720900253483933	0	-13.278198	-37.94098	-0.19683838	54.422363	-109.4372	-8.873653
1448132906286	-1.1232147216796875	9.767547607421875	-2.885009765625	-7.406741020785349	0	-13.7283325	-37.94098	-0.7965088	53.764984	-108.57819	-8.239056
1448132906326	-0.8744659423828125	10.350738525390625	-2.751708984375	-7.175378879500824	0	-14.028931	-37.64038	-1.2466431	53.411133	-107.729996	-7.662569
1448132906366	-1.4469451904296875	9.023681640625	-3.412261962890625	-7.765895590413768	0	-13.7283325	-37.789917	-0.3463745	54.27899	-108.2154	-8.109555
1448132906407	-1.7492523193359375	8.80706787109375	-2.969512939453125	-7.784644854032441	0	-13.128662	-39.14032	0.2532959	54.651306	-108.72838	-8.566249
1448132906447	-1.1910552978515625	9.01654052734375	-3.58721923828125	-7.747895069415984	0	-13.128662	-37.64038	0.8529663	55.277588	-110.14287	-9.740448
1448132906487	-1.3469696044921875	8.64520263671875	-3.650299072265625	-7.896643466473401	0	-12.678528	-38.090515	1.4541626	55.582947	-110.79441	-10.167933
1448132906527	-1.4874114990234375	8.60235595703125	-3.690765380859375	-7.956146251010732	0	-12.678528	-37.789917	1.7532349	55.96454	-111.240326	-10.374411
1448132906568	-1.8992156982421875	8.670196533203125	-3.25634765625	-7.9318645043337614	0	-13.427734	-38.391113	2.053833	56.13684	-111.421684	-10.394051
1448132906608	-1.8420867919921875	8.496429443359375	-3.209930419921875	-7.950687224181774	0	-12.228394	-38.54065	2.2033691	56.19815	-111.363846	-10.323394
1448132906649	-1.6730804443359375	8.574981689453125	-3.209930419921875	-7.885149811940129	0	-12.678528	-37.789917	1.3031006	56.138245	-111.04322	-10.156223
1448132906689	-1.5040740966796875	8.496429443359375	-3.41107177734375	-7.914172043818857	0	-13.128662	-38.24005	1.0040283	55.676483	-110.465065	-9.732137
1448132906730	-1.6159515380859375	8.867767333984375	-3.132568359375	-7.77700707615457	0	-13.278198	-38.83972	0.2532959	54.81952	-109.4901	-8.985957
1448132906770	-1.2588958740234375	9.6854248046875	-2.902862548828125	-7.456351846754062	0	-13.578796	-38.391113	-1.0971069	53.929443	-108.18552	-8.015039
1448132906811	-0.1901092529296875	11.19696044921875	-2.96832275390625	-6.97137012530151	0	-14.028931	-39.14032	-1.2466431	53.55789	-107.2286	-7.3172016
1448132906851	-0.9042205810546875	9.172454833984375	-3.638397216796875	-7.654894389064151	0	-13.877869	-38.090515	-0.9460449	54.220062	-107.63358	-7.677889
1448132906891	-2.2193756103515625	8.472625732421875	-2.83026123046875	-7.956467871853049	0	-12.828064	-38.690186	-0.045776367	54.6864	-108.66659	-8.539361
1448132906932	-1.1267852783203125	9.64019775390625	-2.522003173828125	-7.358864454284774	0	-12.228394	-38.391113	0.8529663	55.07498	-109.5103	-9.256205
1448132906972	-1.4088592529296875	8.39764404296875	-4.03948974609375	-8.089248829171705	0	-13.278198	-38.090515	1.6036987	55.596222	-110.42197	-9.904584
1448132907012	-1.2767486572265625	8.574981689453125	-3.859771728515625	-7.952291152016219	0	-12.527466	-37.94098	2.3529053	56.149933	-111.01384	-10.280542
1448132907052	-1.8611297607421875	8.708282470703125	-3.399169921875	-7.94972553249124	0	-12.828064	-38.690186	2.2033691	56.282135	-111.30603	-10.2969885
1448132907093	-1.6016693115234375	8.5238037109375	-3.10162353515625	-7.851987285353486	0	-12.527466	-38.391113	2.2033691	56.29245	-111.29707	-10.23007
1448132907134	-1.5873870849609375	8.70233154296875	-3.34442138671875	-7.864816523067244	0	-13.128662	-38.990784	1.6036987	56.294617	-111.032646	-10.136269
1448132907174	-1.4838409423828125	8.7618408203125	-3.4229736328125	-7.843177924867607	0	-12.078857	-38.391113	1.0040283	55.991547	-110.55994	-9.8162565
1448132907215	-1.4088592529296875	8.86895751953125	-3.1468505859375	-7.729764021723414	0	-13.128662	-38.690186	0.7034302	55.37906	-109.89484	-9.229475
1448132907255	-1.1922454833984375	9.3616943359375	-2.98974609375	-7.530703965733702	0	-12.678528	-38.83972	-0.19683838	54.695953	-108.977356	-8.488415
1448132907295	-0.9649200439453125	10.00677490234375	-2.89215087890625	-7.3267403306855865	0	-13.427734	-37.94098	-0.64697266	54.15042	-107.91909	-7.701924
1448132907335	-0.8387603759765625	9.642578125	-3.255157470703125	-7.451040559374416	0	-13.578796	-39.440918	-0.64697266	54.62149	-107.72185	-7.6203623
1448132907376	-2.2277069091796875	8.2286376953125	-3.25396728515625	-8.149203396595563	0	-13.7283325	-37.789917	0.103759766	54.95819	-108.183426	-7.9906983
1448132907416	-1.3529205322265625	9.39739990234375	-2.583892822265625	-7.469810204607277	0	-13.128662	-38.83972	0.40283203	55.476563	-109.20656	-8.964716
1448132907456	-1.3231658935546875	8.824920654296875	-3.600311279296875	-7.831392800376296	0	-13.128662	-38.090515	0.55389404	55.773834	-109.76407	-9.4103
1448132907497	-1.2529449462890625	8.82135009765625	-3.61578369140625	-7.81847991812342	0	-13.7283325	-38.54065	1.3031006	56.016754	-110.000275	-9.613179
1448132907537	-1.7313995361328125	8.853485107421875	-3.5562744140625	-7.918264447926014	0	-12.828064	-38.990784	-1.0971069	56.490936	-110.6958	-10.003577
1448132907577	-1.8099517822265625	8.491668701171875	-3.145660400390625	-7.926159488163827	0	-13.427734	-38.990784	1.7532349	56.498077	-110.878944	-10.077854
1448132907617	-1.5338287353515625	8.486907958984375	-3.183746337890625	-7.865123014367105	0	-12.678528	-38.090515	-0.7965088	56.506775	-111.02199	-10.204731
1448132907658	-1.5576324462890625	8.594024658203125	-3.324188232421875	-7.879891931949163	0	-12.527466	-38.990784	-0.64697266	56.326843	-110.77407	-10.042863
1448132907698	-1.5861968994140625	8.636871337890625	-3.307525634765625	-7.871878106881782	0	-12.527466	-38.83972	-1.2466431	55.779053	-110.25912	-9.62199
1448132907738	-1.4945526123046875	8.84039306640625	-3.18017578125	-7.765603999795305	0	-12.828064	-39.289856	-1.6967773	55.079956	-109.44618	-8.993364
1448132907779	-1.1529693603515625	9.83538818359375	-3.0897216796875	-7.441711600190256	0	-12.9776	-38.83972	-2.8961182	54.725677	-108.93037	-8.616763
1448132907825	-0.7947235107421875	11.17791748046875	-2.333953857421875	-6.969481723948631	0	-13.877869	-38.54065	-3.7963867	54.245483	-107.66585	-7.8025627
1448132907865	-1.2517547607421875	9.20220947265625	-3.714569091796875	-7.748473274038455	0	-12.527466	-39.14032	-3.0471802	55.02942	-108.42011	-8.434193
1448132907906	-1.6195220947265625	8.905853271484375	-2.86834716796875	-7.704699905136055	0	-12.527466	-37.789917	-1.0971069	55.645233	-109.78296	-9.579112
1448132907946	-1.5052642822265625	8.78802490234375	-3.25396728515625	-7.799414573847015	0	-12.37793	-39.440918	-0.7965088	55.951904	-110.802284	-10.439846
1448132907986	-1.4290924072265625	7.834686279296875	-3.551513671875	-8.117197679593367	0	-11.927795	-39.73999	-0.3463745	56.20746	-111.546646	-11.008621
1448132908027	-1.7349700927734375	8.6856689453125	-3.399169921875	-7.922049939464578	0	-12.228394	-38.83972	-0.19683838	56.26538	-111.615005	-10.969291
1448132908067	-1.8885040283203125	8.90228271484375	-3.426544189453125	-7.912600396760782	0	-12.678528	-38.391113	0.103759766	55.938477	-111.28099	-10.499984
1448132908107	-1.5481109619140625	9.189117431640625	-2.99212646484375	-7.6504738430038906	0	-12.828064	-38.391113	1.0040283	55.493256	-110.338615	-9.710332
1448132908148	-1.3445892333984375	9.146270751953125	-3.1754150390625	-7.655724252893211	0	-12.678528	-39.590454	-0.9460449	55.35794	-110.004456	-9.474266
1448132908188	-1.3564910888671875	8.80706787109375	-3.281341552734375	-7.7647294777846	0	-13.278198	-38.990784	0.40283203	54.729584	-109.20834	-8.740422
1448132908228	-1.2077178955078125	9.0855712890625	-3.126617431640625	-7.62686699756276	0	-14.178467	-38.391113	-0.045776367	54.332397	-108.58916	-8.161313
1448132908269	-1.1160736083984375	9.474761962890625	-3.026641845703125	-7.4974775457353795	0	-13.877869	-39.289856	-2.746582	54.200348	-108.24114	-7.861973
1448132908309	-1.1208343505859375	9.63543701171875	-3.200408935546875	-7.5013464942905	0	-14.477539	-37.94098	-0.3463745	54.183716	-107.82473	-7.5064697
1448132908350	-1.4243316650390625	9.404541015625	-3.245635986328125	-7.630692519370868	0	-13.578796	-38.54065	-0.19683838	54.39087	-108.02402	-7.656051
1448132908390	-1.3398284912109375	9.74493408203125	-2.864776611328125	-7.452809656852975	0	-13.278198	-37.94098	0.2532959	55.028534	-108.93415	-8.554809
1448132908430	-1.7682952880859375	9.0712890625	-3.347991943359375	-7.817881359504394	0	-12.9776	-39.14032	-1.2466431	55.623962	-109.96001	-9.519923
1448132908470	-1.7254486083984375	8.410736083984375	-3.63006591796875	-8.058680792022358	0	-12.078857	-37.94098	1.7532349	56.08972	-111.11031	-10.44851
1448132908511	-1.6004791259765625	8.060821533203125	-3.512237548828125	-8.089595381951918	0	-12.828064	-38.54065	2.9541016	56.212036	-111.93931	-10.788977
1448132908551	-1.6219024658203125	8.089385986328125	-3.4420166015625	-8.067213062327616	0	-12.37793	-38.690186	2.8030396	56.06137	-112.23717	-11.199787
1448132908592	-1.6790313720703125	8.334564208984375	-3.4801025390625	-8.024626291481392	0	-12.828064	-38.54065	0.2532959	55.873535	-112.03052	-11.040609
1448132908632	-1.6195220947265625	8.5714111328125	-3.39678955078125	-7.921102854071455	0	-12.527466	-39.440918	-0.3463745	55.47937	-111.4218	-10.541888
1448132908673	-1.6326141357421875	8.71661376953125	-3.2991943359375	-7.861142393715154	0	-12.828064	-38.83972	0.55389404	54.80127	-110.474556	-9.754367
1448132908713	-1.4362335205078125	9.07366943359375	-2.9278564453125	-7.636443446252451	0	-12.9776	-38.24005	-1.3961792	53.91736	-109.14577	-8.717641
1448132908754	-1.1208343505859375	10.16864013671875	-2.836212158203125	-7.314293111206068	0	-14.477539	-37.789917	-1.3961792	52.94928	-107.65876	-7.5370393
1448132908794	-0.3960113525390625	10.017486572265625	-2.645782470703125	-6.959640423011276	0	-13.877869	-38.83972	-1.3961792	52.9357	-106.88019	-6.993197
1448132908835	-1.4766998291015625	8.35479736328125	-3.78955078125	-8.049173827175181	0	-12.9776	-37.789917	-3.0471802	53.87152	-107.59612	-7.6308184
1448132908875	-1.6754608154296875	9.31170654296875	-2.1280517578125	-7.459645810049424	0	-13.877869	-39.289856	-0.49591064	54.123383	-108.40819	-8.482201
1448132908915	-1.3993377685546875	9.655670166015625	-2.5755615234375	-7.4231632221467585	0	-12.9776	-38.24005	-2.2964478	54.266174	-108.76568	-8.958766
1448132908956	-1.0958404541015625	9.54022216796875	-3.521759033203125	-7.54592045679395	0	-12.527466	-38.690186	0.2532959	54.94687	-109.1216	-9.535477
1448132908996	-1.8397064208984375	9.353363037109375	-4.522705078125	-8.077163230966237	0	-12.527466	-38.24005	2.5039673	55.84555	-109.935394	-10.205335
1448132909036	-2.3110198974609375	8.40478515625	-3.10638427734375	-8.078195828098846	0	-12.078857	-37.789917	2.6535034	56.25659	-111.34739	-10.890759
1448132909077	-1.7587738037109375	7.987030029296875	-2.9849853515625	-8.005691653075193	0	-11.778259	-38.990784	3.1036377	56.510986	-112.45376	-11.557229
1448132909117	-1.6504669189453125	7.69781494140625	-3.664581298828125	-8.262978698115106	0	-11.178589	-39.289856	3.4042358	56.749268	-113.23744	-12.245528
1448132909157	-1.7849578857421875	7.87158203125	-3.500335693359375	-8.198405841277728	0	-11.927795	-39.14032	3.4042358	56.51837	-113.11537	-12.074267
1448132909198	-1.9492034912109375	8.21435546875	-3.64434814453125	-8.187710308573244	0	-12.078857	-38.54065	2.9541016	56.00232	-112.48905	-11.475654
1448132909239	-1.8992156982421875	8.880859375	-3.624114990234375	-7.974243952032401	0	-12.37793	-38.83972	0.8529663	55.13159	-111.26343	-10.461027
1448132909279	-1.7825775146484375	9.24505615234375	-3.283721923828125	-7.762399248149245	0	-12.828064	-38.391113	0.103759766	54.004486	-109.47945	-9.111682
1448132909320	-1.1374969482421875	10.2138671875	-2.783843994140625	-7.298109169816005	0	-13.278198	-38.54065	-0.49591064	53.37329	-108.467606	-8.304805
1448132909360	-0.1270294189453125	11.96343994140625	-2.81121826171875	-6.802404223965723	0	-14.477539	-38.54065	-2.445984	52.20511	-105.95809	-6.2901454
1448132909400	-0.7304534912109375	9.567596435546875	-3.31585693359375	-7.456858309783351	0	-13.578796	-38.24005	-1.2466431	53.384277	-106.06568	-6.639625
1448132909441	-2.8382720947265625	8.21197509765625	-2.986175537109375	-8.26143739825858	0	-13.7283325	-38.54065	-0.7965088	54.32614	-106.95168	-7.679674
1448132909481	-1.2220001220703125	9.766357421875	-1.317535400390625	-7.118325107171131	0	-12.527466	-38.54065	-1.2466431	54.568573	-107.66142	-8.547106
1448132909522	-1.0815582275390625	8.95465087890625	-3.3658447265625	-7.683571991516671	0	-12.37793	-40.33966	1.0040283	54.853577	-108.882034	-9.58477
1448132909562	-1.0767974853515625	8.4000244140625	-3.433685302734375	-7.834407913519435	0	-11.628723	-39.289856	1.902771	55.789642	-110.01605	-10.775423
1448132909602	-1.5612030029296875	8.339324951171875	-4.154937744140625	-8.186975289117395	0	-10.728455	-40.04059	2.6535034	56.48004	-110.98662	-11.603634
1448132909643	-1.7801971435546875	8.391693115234375	-3.30157470703125	-7.987281098694229	0	-10.877991	-38.690186	2.8030396	56.638885	-111.49863	-11.921581
1448132909683	-1.7528228759765625	8.15484619140625	-3.167083740234375	-8.008006222852055	0	-11.328125	-39.14032	2.8030396	56.752747	-111.53076	-12.018639
1448132909723	-1.7099761962890625	8.151275634765625	-3.25872802734375	-8.022623707799676	0	-11.178589	-37.339783	1.902771	56.631195	-111.13964	-11.724284
1448132909764	-1.8289947509765625	8.64044189453125	-3.68243408203125	-8.037698346000141	0	-12.828064	-37.789917	1.0040283	56.062683	-110.278854	-10.930583
1448132909804	-1.4647979736328125	9.4949951171875	-2.514862060546875	-7.458124945202139	0	-12.828064	-39.289856	-0.64697266	55.125336	-108.74434	-9.528282
1448132909844	-1.0613250732421875	10.1376953125	-2.047119140625	-7.155326513798922	0	-14.178467	-37.789917	-1.9958496	53.99948	-106.72436	-7.6744637
1448132909885	-0.9922943115234375	10.5947265625	-2.245880126953125	-7.094303533161716	0	-13.7283325	-37.789917	-2.746582	53.349518	-104.841194	-6.068677
1448132909925	-1.1065521240234375	10.94464111328125	-2.988555908203125	-7.189438736138965	0	-15.678406	-37.490845	-2.8961182	54.119446	-104.06535	-5.659298
1448132909965	-2.1622467041015625	8.344085693359375	-3.21826171875	-8.08509563738345	0	-14.477539	-37.94098	-1.6967773	55.220215	-104.91672	-6.3589497
1448132910006	-1.4897918701171875	9.738983154296875	-1.21160888671875	-7.1537557909555	0	-14.328003	-38.990784	-0.7965088	55.463623	-106.08535	-7.553735
1448132910046	-0.9066009521484375	9.274810791015625	-2.919525146484375	-7.472358218953569	0	-13.578796	-38.391113	-0.3463745	55.789276	-106.99612	-8.637837
1448132910086	-0.9196929931640625	8.789215087890625	-3.233734130859375	-7.653511993469103	0	-13.427734	-37.339783	1.0040283	56.485413	-107.92697	-9.537109
1448132910127	-0.9637298583984375	8.843963623046875	-3.559844970703125	-7.728045503734551	0	-12.828064	-38.24005	1.1535645	57.522186	-108.54422	-10.191688
1448132910167	-1.8837432861328125	8.786834716796875	-3.89190673828125	-8.071323453629706	0	-12.828064	-38.54065	1.1535645	58.026215	-108.89755	-10.3853655
1448132910207	-1.8718414306640625	8.713043212890625	-2.29705810546875	-7.674900284571532	0	-12.527466	-38.391113	0.40283203	58.70819	-109.34214	-10.887643
1448132910247	-1.6671295166015625	8.698760986328125	-2.8135986328125	-7.752814997397715	0	-11.628723	-38.090515	0.7034302	58.95468	-109.32044	-10.987368
1448132910288	-1.7790069580078125	8.77374267578125	-3.18731689453125	-7.855339170884069	0	-11.927795	-38.990784	1.7532349	59.15747	-109.017784	-10.993352
1448132910328	-1.8694610595703125	8.836822509765625	-2.919525146484375	-7.794676466733653	0	-12.527466	-38.83972	1.4541626	59.107605	-108.77757	-10.908324
1448132910368	-1.5992889404296875	8.448822021484375	-2.776702880859375	-7.788474582639791	0	-12.9776	-38.391113	-0.49591064	58.51703	-107.606316	-10.279501
1448132910409	-1.1017913818359375	8.470245361328125	-2.319671630859375	-7.559650434782121	0	-13.278198	-38.391113	-1.3961792	57.680145	-106.35026	-9.488202
1448132910449	-1.1196441650390625	8.718994140625	-1.970947265625	-7.434174509081278	0	-12.828064	-37.94098	-2.1469116	56.872772	-105.00203	-8.708907
1448132910491	-1.0160980224609375	10.388824462890625	-2.4755859375	-7.180359245055836	0	-14.028931	-37.339783	-3.6468506	56.15164	-103.861176	-7.8491707
1448132910531	-0.9720611572265625	11.398101806640625	-2.995697021484375	-7.080734334210563	0	-14.178467	-39.590454	-3.1967163	55.983704	-103.32839	-7.301738
1448132910572	-0.6876068115234375	9.57354736328125	-3.63958740234375	-7.516108098810637	0	-14.028931	-37.490845	-1.8463135	56.808044	-104.165504	-7.5702577
1448132910613	-2.4276580810546875	8.26910400390625	-3.4610595703125	-8.263749925449961	0	-14.178467	-38.83972	-0.9460449	56.912018	-105.54029	-8.184721
1448132910653	-1.4374237060546875	9.56640625	-1.181854248046875	-7.170859440707709	0	-12.9776	-37.789917	-1.2466431	56.847595	-106.23389	-8.774208
1448132910693	-0.9137420654296875	9.284332275390625	-2.7279052734375	-7.431166368739501	0	-12.828064	-38.990784	-1.2466431	57.206085	-106.724815	-9.226317
1448132910734	-0.9911041259765625	9.550933837890625	-2.595794677734375	-7.364462609479211	0	-12.37793	-38.990784	-0.19683838	57.64026	-107.04588	-9.519322
1448132910774	-1.3779144287109375	9.39263916015625	-3.590789794921875	-7.703284774808246	0	-12.527466	-38.24005	0.2532959	57.957184	-107.96905	-10.058918
1448132910815	-2.1253509521484375	8.1905517578125	-2.931427001953125	-8.03635318000259	0	-12.9776	-38.090515	1.902771	57.966644	-109.242096	-10.951381
1448132910855	-1.7266387939453125	8.229827880859375	-3.059967041015625	-7.951007898837021	0	-11.628723	-38.54065	1.7532349	57.716522	-110.068504	-11.619769
1448132910895	-1.6195220947265625	8.21673583984375	-3.4658203125	-8.037025635183085	0	-11.328125	-38.83972	1.4541626	57.315033	-110.35041	-11.841636
1448132910936	-1.7313995361328125	8.36907958984375	-3.418212890625	-8.012312630851474	0	-11.628723	-38.690186	1.902771	56.53601	-110.17681	-11.527146
1448132910976	-1.7504425048828125	8.644012451171875	-3.20635986328125	-7.8863890524716265	0	-12.678528	-39.289856	0.40283203	56.169952	-109.468994	-10.676011
1448132911016	-1.4076690673828125	9.32598876953125	-2.32562255859375	-7.441711600190256	0	-14.028931	-38.83972	-0.9460449	55.180176	-108.11569	-9.369653
1448132911059	-0.4602813720703125	11.2183837890625	-2.072113037109375	-6.859399738754963	0	-13.7283325	-38.24005	-2.2964478	53.60211	-105.637146	-7.1859155
1448132911099	-0.5935821533203125	10.6375732421875	-3.188507080078125	-7.188302077916063	0	-13.877869	-37.789917	-1.9958496	53.816345	-105.55296	-6.967294
1448132911139	-1.2767486572265625	8.037017822265625	-3.66339111328125	-8.046805110884279	0	-12.828064	-38.090515	-0.9460449	54.596375	-106.969765	-7.862925
1448132911180	-2.2277069091796875	8.843963623046875	-2.637451171875	-7.811905651987706	0	-12.9776	-38.690186	0.2532959	54.769806	-107.697105	-8.501029
1448132911220	-0.9220733642578125	9.87109375	-2.7802734375	-7.32290377295407	0	-12.527466	-38.24005	0.2532959	54.851257	-109.02919	-9.751497
1448132911260	-1.3791046142578125	8.413116455078125	-3.65386962890625	-7.968083692779945	0	-11.778259	-37.94098	1.3031006	55.147827	-109.78522	-10.325427
1448132911301	-1.3433990478515625	8.5380859375	-3.840728759765625	-7.975218518745257	0	-11.628723	-39.590454	1.6036987	55.55551	-110.258644	-10.576335
1448132911341	-1.8908843994140625	8.8046875	-3.374176025390625	-7.925210334036217	0	-11.477661	-39.14032	1.6036987	55.451843	-110.419945	-10.472423
1448132911382	-1.7421112060546875	8.74041748046875	-3.045684814453125	-7.81847991812342	0	-11.927795	-38.54065	1.3031006	55.387756	-110.373276	-10.394187
1448132911422	-1.5338287353515625	8.893951416015625	-3.064727783203125	-7.734066550942798	0	-12.078857	-38.24005	1.0040283	55.34146	-109.92126	-10.197467
1448132911462	-1.4993133544921875	8.877288818359375	-3.23492431640625	-7.771151364573171	0	-11.628723	-39.440918	1.0040283	55.116364	-109.38601	-9.875285
1448132911503	-1.5612030029296875	8.715423583984375	-3.221832275390625	-7.823574960908445	0	-12.078857	-39.14032	-0.19683838	54.637573	-108.77112	-9.34866
1448132911543	-1.4671783447265625	9.227203369140625	-2.73504638671875	-7.564953587718323	0	-12.527466	-37.94098	-0.3463745	54.130554	-107.906425	-8.706487
1448132911585	-0.8875579833984375	10.288848876953125	-2.5374755859375	-7.1867115848919845	0	-12.9776	-39.289856	-1.5472412	53.926025	-107.044785	-8.144271
1448132911625	-1.1303558349609375	9.727081298828125	-3.0992431640625	-7.461928957016637	0	-13.578796	-38.83972	-0.7965088	54.320282	-107.01982	-8.181676
1448132911665	-1.6183319091796875	9.099853515625	-2.91595458984375	-7.6698812499999995	0	-12.9776	-38.83972	0.103759766	54.87024	-107.825645	-8.799542
1448132911706	-1.5933380126953125	9.420013427734375	-2.80645751953125	-7.566015724524558	0	-12.37793	-38.391113	0.8529663	55.409363	-108.720436	-9.625012
1448132911746	-1.5540618896484375	9.174835205078125	-3.2135009765625	-7.7072495435808746	0	-11.927795	-38.83972	1.7532349	56.096863	-109.69278	-10.474961
1448132911786	-1.6492767333984375	8.67138671875	-3.88714599609375	-8.03601704818503	0	-11.778259	-37.490845	2.9541016	56.76367	-110.691765	-11.195493
1448132911827	-1.9253997802734375	8.432159423828125	-3.50628662109375	-8.074412647990714	0	-11.778259	-38.690186	3.1036377	57.379303	-111.54489	-11.68496
1448132911867	-1.9146881103515625	8.272674560546875	-3.53009033203125	-8.124965046104219	0	-11.328125	-37.64038	2.9541016	57.551422	-112.161385	-12.111737
1448132911907	-1.8170928955078125	8.35003662109375	-3.419403076171875	-8.042077217655136	0	-11.328125	-39.891052	3.553772	57.661377	-112.02193	-12.106425
1448132911948	-1.9075469970703125	8.471435546875	-3.581268310546875	-8.07957358466704	0	-11.328125	-38.54065	3.1036377	57.62561	-111.83708	-11.975873
1448132911988	-1.9325408935546875	8.4619140625	-3.586029052734375	-8.09098229310521	0	-11.477661	-38.83972	2.6535034	56.960754	-110.82483	-11.144598
1448132912029	-1.8599395751953125	8.88800048828125	-3.186126708984375	-7.846514745705798	0	-12.228394	-38.690186	1.4541626	56.113403	-109.60429	-10.22801
1448132912069	-1.5493011474609375	9.80682373046875	-2.355377197265625	-7.377166859174308	0	-12.37793	-38.24005	0.2532959	55.231598	-108.13856	-9.1324835
1448132912110	-1.0220489501953125	10.610198974609375	-2.5469970703125	-7.153082908647173	0	-13.877869	-38.990784	-0.19683838	55.04071	-107.21781	-8.486527
1448132912150	-1.1315460205078125	9.56402587890625	-3.619354248046875	-7.612716317953122	0	-13.278198	-38.990784	-0.19683838	55.256653	-107.20661	-8.495621
1448132912190	-1.9789581298828125	8.71185302734375	-3.2706298828125	-7.945883736125134	0	-13.427734	-38.391113	0.103759766	56.04651	-108.681465	-9.476831
1448132912231	-1.4445648193359375	9.358123779296875	-2.538665771484375	-7.48821841180608	0	-12.37793	-38.690186	1.0040283	56.478058	-109.731384	-10.451965
1448132912271	-1.5433502197265625	8.682098388671875	-3.681243896484375	-7.947163452961909	0	-11.628723	-38.83972	2.5039673	56.942078	-110.80175	-11.425544
1448132912312	-1.7337799072265625	8.1953125	-4.256103515625	-8.32153128874505	0	-11.027527	-38.83972	3.4042358	57.42975	-111.77447	-12.202458
1448132912352	-1.8825531005859375	8.313140869140625	-4.021636962890625	-8.254520489902639	0	-10.728455	-39.73999	3.4042358	57.538116	-112.446465	-12.509799
1448132912392	-2.1205902099609375	8.260772705078125	-3.612213134765625	-8.216641082181189	0	-10.877991	-38.54065	3.703308	57.433807	-112.66436	-12.503767
1448132912433	-1.8420867919921875	8.40478515625	-3.47296142578125	-8.048835243703936	0	-11.178589	-39.14032	3.553772	57.15149	-112.44533	-12.233264
1448132912473	-1.7099761962890625	8.425018310546875	-3.6895751953125	-8.067213062327616	0	-11.778259	-37.94098	2.9541016	56.651215	-111.862755	-11.6704855
1448132912513	-2.0075225830078125	8.615447998046875	-3.5467529296875	-8.03736195861882	0	-11.927795	-38.690186	1.7532349	55.79184	-110.87539	-10.7456255
