timestamp	accel_x	accel_y	accel_z	accel_mag	temperature	mag_x	mag_y	mag_z	azimuth	pitch	roll
1448091785350	0.286956787109375	0.852996826171875	9.421142578125	-6.556815977729251	0	-17.759705	3.8986206	-32.03888	66.10358	-4.9237304	1.8080355
1448091785391	0.32861328125	0.851806640625	9.843658447265625	-6.486347243184545	0	-17.518616	4.1397095	-31.619263	66.11548	-4.928815	1.8053341
1448091785434	0.313140869140625	0.84228515625	9.6448974609375	-6.520215438460051	0	-17.63916	3.8986206	-31.439209	66.14093	-4.9326234	1.791621
1448091785479	0.29052734375	0.843475341796875	9.744873046875	-6.508285925746021	0	-17.819214	4.1992188	-31.559753	66.213745	-4.942046	1.7256618
1448091785520	0.284576416015625	0.864898681640625	9.636566162109375	-6.522389096332937	0	-17.69867	3.9596558	-31.619263	66.28314	-4.9577274	1.6744112
1448091785560	0.28814697265625	0.85894775390625	9.75201416015625	-6.503418088238629	0	-17.939758	3.8391113	-32.03888	66.309906	-4.961694	1.6645602
1448091785600	0.271484375	0.831573486328125	9.70440673828125	-6.519129148477605	0	-17.819214	3.779602	-31.799316	66.42233	-4.95873	1.6507738
1448091785641	0.26434326171875	0.84228515625	9.7353515625	-6.513341653451801	0	-17.459106	3.718567	-31.858826	66.45886	-4.957956	1.6455196
1448091785681	0.28814697265625	0.860137939453125	9.691314697265625	-6.514245278926494	0	-17.63916	3.718567	-31.858826	66.520935	-4.9548826	1.6360255
1448091785721	0.284576416015625	0.845855712890625	9.686553955078125	-6.517681319949613	0	-17.819214	4.559326	-31.799316	66.57614	-4.9617543	1.6360848
1448091785761	0.29052734375	0.8660888671875	9.731781005859375	-6.506842854876002	0	-18.058777	4.6798706	-31.858826	66.57071	-4.9659534	1.6370624
1448091785802	0.284576416015625	0.831573486328125	9.70440673828125	-6.517138548542482	0	-18.359375	4.798889	-31.739807	66.59662	-4.9651213	1.6333444
1448091785842	0.258392333984375	0.822052001953125	9.753204345703125	-6.515149152479924	0	-18.359375	4.798889	-31.678772	66.61148	-4.958701	1.6289505
1448091785882	0.286956787109375	0.860137939453125	9.703216552734375	-6.512618931551537	0	-18.359375	4.4387817	-31.559753	66.62552	-4.957883	1.6294484
1448091785922	0.282196044921875	0.836334228515625	9.725830078125	-6.513522358710244	0	-18.119812	4.3792725	-31.498718	66.65039	-4.9599056	1.632294
1448091785963	0.272674560546875	0.826812744140625	9.696075439453125	-6.5209398313062525	0	-18.299866	4.4387817	-31.559753	66.68118	-4.9596148	1.6309457
1448091786003	0.28338623046875	0.85418701171875	9.7115478515625	-6.512799597159839	0	-17.878723	4.6188354	-31.559753	66.68857	-4.9668045	1.626479
1448091786043	0.279815673828125	0.83038330078125	9.679412841796875	-6.521845547014777	0	-17.999268	4.559326	-31.678772	66.68353	-4.9687757	1.6255007
1448091786083	0.26910400390625	0.826812744140625	9.743682861328125	-6.514245278926494	0	-17.878723	4.319763	-31.91986	66.69269	-4.9657273	1.6235255
1448091786124	0.275054931640625	0.8232421875	9.71868896484375	-6.517681319949613	0	-18.179321	4.319763	-31.739807	66.73407	-4.9607763	1.6225153
1448091786164	0.3048095703125	0.817291259765625	9.710357666015625	-6.515329956978043	0	-18.598938	4.1992188	-31.619263	66.77493	-4.9577622	1.6282516
1448091786204	0.284576416015625	0.85894775390625	9.6829833984375	-6.516234128495833	0	-18.959045	4.258728	-31.91986	66.819	-4.9595885	1.6285456
1448091786244	0.29052734375	0.832763671875	9.74249267578125	-6.5102711797203465	0	-19.018555	4.499817	-31.97937	66.880005	-4.9542494	1.6285951
1448091786284	0.26434326171875	0.836334228515625	9.68536376953125	-6.522389096332937	0	-18.778992	4.258728	-31.91986	66.92523	-4.9551363	1.6226065
1448091786325	0.258392333984375	0.869659423828125	9.71630859375	-6.513522358710244	0	-18.47992	4.258728	-32.218933	66.95648	-4.9632664	1.6164584
1448091786365	0.25958251953125	0.850616455078125	9.7020263671875	-6.518405154526746	0	-18.299866	3.8986206	-32.218933	66.978	-4.9645343	1.6126512
1448091786405	0.284576416015625	0.8660888671875	9.779388427734375	-6.50053682593065	0	-17.999268	3.8391113	-32.27997	67.0473	-4.966458	1.6154708
1448091786445	0.282196044921875	0.81610107421875	9.672271728515625	-6.524745516989479	0	-18.23883	4.1397095	-32.458496	67.10065	-4.960436	1.612774
1448091786486	0.2762451171875	0.852996826171875	9.743682861328125	-6.509188165744609	0	-18.418884	4.1397095	-32.27997	67.134674	-4.9623623	1.6131182
1448091786526	0.279815673828125	0.864898681640625	9.681793212890625	-6.516234128495833	0	-18.539429	4.319763	-32.159424	67.15408	-4.9691324	1.6141483
1448091786566	0.28338623046875	0.819671630859375	9.6829833984375	-6.522389096332937	0	-18.359375	4.1992188	-31.858826	67.172	-4.9639354	1.6162724
1448091786606	0.2762451171875	0.85894775390625	9.65203857421875	-6.522207903231939	0	-18.119812	3.8391113	-31.799316	67.226166	-4.971494	1.6119643
1448091786646	0.277435302734375	0.83038330078125	9.736541748046875	-6.513522358710244	0	-18.23883	3.9596558	-31.799316	67.29028	-4.9647326	1.6173998
1448091786687	0.25958251953125	0.84466552734375	9.731781005859375	-6.514787573276026	0	-18.359375	4.019165	-31.739807	67.341125	-4.964887	1.6057116
1448091786727	0.28814697265625	0.82086181640625	9.69964599609375	-6.518948135042846	0	-18.299866	4.1397095	-31.858826	67.37128	-4.9643006	1.6137357
1448091786767	0.263153076171875	0.8660888671875	9.786529541015625	-6.502697537097228	0	-18.058777	4.4387817	-31.739807	67.37329	-4.9677205	1.6078461
1448091786807	0.298858642578125	0.86846923828125	9.874603271484375	-6.4836598632620905	0	-17.759705	4.1397095	-32.099915	67.36978	-4.9727736	1.6140078
1448091786860	0.267913818359375	0.83990478515625	9.519927978515625	-6.546577518170887	0	-17.759705	3.9596558	-32.218933	67.39255	-4.9799175	1.600498
1448091786900	0.317901611328125	0.833953857421875	9.812713623046875	-6.495320928131113	0	-18.058777	3.779602	-31.91986	67.42343	-4.975114	1.6029273
1448091786949	0.27386474609375	0.8375244140625	9.734161376953125	-6.513341653451801	0	-18.179321	4.499817	-31.799316	67.46051	-4.9766254	1.6073623
1448091786989	0.279815673828125	0.829193115234375	9.657989501953125	-6.525289546687844	0	-17.999268	4.6798706	-31.97937	67.457825	-4.972808	1.6111984
1448091787030	0.300048828125	0.85894775390625	9.715118408203125	-6.5090076979962515	0	-17.939758	4.8599243	-31.739807	67.42142	-4.9789524	1.6185126
1448091787070	0.281005859375	0.82086181640625	9.600860595703125	-6.535097551355895	0	-18.119812	4.798889	-32.03888	67.3815	-4.97105	1.6242559
1448091787120	0.272674560546875	0.848236083984375	9.617523193359375	-6.512076994170855	0	-17.999268	4.6798706	-32.159424	67.36188	-4.9680586	1.6170113
1448091787160	0.28814697265625	0.836334228515625	9.69012451171875	-6.518043217323042	0	-18.299866	4.8599243	-32.159424	67.332275	-4.9680867	1.6231452
1448091787200	0.265533447265625	0.84466552734375	9.6258544921875	-6.530008254481972	0	-18.418884	4.8599243	-32.159424	67.30054	-4.9708643	1.6179566
1448091787241	0.28338623046875	0.843475341796875	9.703216552734375	-6.515691595774808	0	-18.418884	4.8599243	-31.619263	67.27612	-4.9734144	1.6221764
1448091787281	0.267913818359375	0.843475341796875	9.688934326171875	-6.520215438460051	0	-18.47992	4.978943	-31.678772	67.24298	-4.9787006	1.6193635
1448091787321	0.28338623046875	0.867279052734375	9.741302490234375	-6.509368643370529	0	-18.299866	4.6798706	-31.858826	67.2157	-4.978827	1.6199403
1448091787361	0.253631591796875	0.8470458984375	9.669891357421875	-6.524745516989479	0	-18.659973	4.9194336	-32.03888	67.206055	-4.9836307	1.6149739
1448091787402	0.265533447265625	0.8565673828125	9.707977294921875	-6.515691595774808	0	-18.359375	4.9194336	-32.458496	67.19232	-4.98164	1.6167282
1448091787442	0.260772705078125	0.8470458984375	9.6829833984375	-6.521664383895306	0	-18.058777	4.559326	-32.51953	67.16693	-4.9865108	1.6112281
1448091787482	0.30242919921875	0.83990478515625	9.693695068359375	-6.514787573276026	0	-18.179321	4.73938	-32.398987	67.1467	-4.989994	1.6125554
1448091787522	0.27386474609375	0.860137939453125	9.69964599609375	-6.515149152479924	0	-17.819214	4.4387817	-32.27997	67.135315	-4.9890537	1.6171991
1448091787568	0.2857666015625	0.83514404296875	9.698455810546875	-6.521120954473496	0	-18.058777	4.1397095	-32.159424	67.13312	-4.993068	1.6165096
1448091787608	0.27386474609375	0.838714599609375	9.70916748046875	-6.516957644641005	0	-18.539429	4.1992188	-32.099915	67.17038	-4.9871974	1.6171379
1448091787649	0.270294189453125	0.848236083984375	9.7305908203125	-6.512799597159839	0	-18.659973	4.0786743	-31.97937	67.217896	-4.988478	1.6172844
1448091787689	0.27386474609375	0.855377197265625	9.67584228515625	-6.519491205251091	0	-19.1391	4.6188354	-32.03888	67.24161	-4.999153	1.6129867
1448091787730	0.291717529296875	0.85894775390625	9.7353515625	-6.507203563422072	0	-18.959045	4.73938	-32.099915	67.23782	-4.999813	1.6165915
1448091787770	0.2572021484375	0.857757568359375	9.703216552734375	-6.5175003861951435	0	-18.778992	5.0994873	-31.91986	67.2312	-5.002961	1.615345
1448091787810	0.282196044921875	0.832763671875	9.75201416015625	-6.510090652682276	0	-18.838501	5.218506	-31.91986	67.22955	-5.0034127	1.6167567
1448091787850	0.2857666015625	0.829193115234375	9.710357666015625	-6.520758718122936	0	-18.659973	4.798889	-31.619263	67.24472	-4.994825	1.6137328
1448091787891	0.2762451171875	0.86370849609375	9.72344970703125	-6.510632263460016	0	-18.598938	4.73938	-31.259155	67.23566	-4.999359	1.6169434
1448091787931	0.282196044921875	0.8470458984375	9.736541748046875	-6.5102711797203465	0	-18.299866	4.559326	-31.498718	67.22931	-5.0008225	1.6232039
1448091787971	0.281005859375	0.8470458984375	9.677032470703125	-6.519491205251091	0	-18.119812	4.559326	-31.498718	67.2207	-5.0049644	1.6266252
1448091788011	0.275054931640625	0.8470458984375	9.693695068359375	-6.517862263658365	0	-18.299866	4.73938	-31.97937	67.21359	-5.0094066	1.6270862
1448091788060	0.29290771484375	0.850616455078125	9.710357666015625	-6.512076994170855	0	-17.939758	4.6188354	-32.03888	67.213135	-5.0080743	1.630921
1448091788101	0.289337158203125	0.855377197265625	9.687744140625	-6.515329956978043	0	-18.299866	4.4387817	-31.799316	67.211334	-5.0066333	1.6369988
1448091788141	0.263153076171875	0.832763671875	9.6829833984375	-6.52347646493703	0	-18.119812	4.3792725	-31.858826	67.21921	-5.002727	1.6341562
1448091788181	0.271484375	0.84942626953125	9.69012451171875	-6.518586138069062	0	-18.119812	4.3792725	-31.858826	67.21936	-5.0032616	1.6326951
1448091788222	0.275054931640625	0.841094970703125	9.71392822265625	-6.515691595774808	0	-18.299866	4.4387817	-32.339478	67.2301	-4.998124	1.628304
1448091788262	0.29052734375	0.836334228515625	9.681793212890625	-6.518948135042846	0	-18.179321	4.8599243	-32.398987	67.224976	-4.9990287	1.6340313
1448091788303	0.25958251953125	0.857757568359375	9.688934326171875	-6.5193101718798045	0	-18.119812	4.8599243	-32.458496	67.22266	-5.000959	1.6329961
1448091788343	0.275054931640625	0.862518310546875	9.706787109375	-6.513522358710244	0	-18.359375	4.8599243	-32.03888	67.21991	-5.0034018	1.6314995
1448091788383	0.272674560546875	0.845855712890625	9.69012451171875	-6.518948135042846	0	-18.23883	4.6798706	-31.91986	67.22211	-5.00284	1.6294671
1448091788434	0.286956787109375	0.860137939453125	9.677032470703125	-6.516595866679553	0	-17.999268	4.4387817	-31.91986	67.21713	-5.0045404	1.6330615
1448091788475	0.284576416015625	0.857757568359375	9.66156005859375	-6.5196722485931105	0	-18.119812	4.319763	-32.099915	67.21417	-5.0059495	1.6342983
1448091788515	0.26910400390625	0.83038330078125	9.6925048828125	-6.5214832307663695	0	-18.058777	4.3792725	-31.97937	67.22891	-4.9994864	1.6269431
1448091788555	0.263153076171875	0.855377197265625	9.6639404296875	-6.522932735625456	0	-18.299866	4.6188354	-31.91986	67.23389	-4.9987807	1.6209857
1448091788595	0.27386474609375	0.845855712890625	9.693695068359375	-6.518224180945287	0	-18.179321	4.3792725	-32.03888	67.23108	-4.999936	1.622564
1448091788647	0.2857666015625	0.851806640625	9.707977294921875	-6.513341653451801	0	-17.999268	3.8986206	-32.218933	67.22882	-4.9993324	1.6274407
1448091788688	0.28338623046875	0.85418701171875	9.731781005859375	-6.5097296282615424	0	-17.878723	3.5385132	-32.159424	67.22754	-5.0002794	1.627151
1448091788728	0.2762451171875	0.852996826171875	9.7020263671875	-6.515510771409126	0	-18.058777	3.9596558	-32.218933	67.23044	-4.9982634	1.6274656
1448091788768	0.27386474609375	0.838714599609375	9.706787109375	-6.517319462393314	0	-18.47992	4.319763	-31.91986	67.23956	-4.9944468	1.6224763
1448091788808	0.294097900390625	0.8470458984375	9.668701171875	-6.51876713157388	0	-18.778992	4.798889	-31.678772	67.234924	-4.9951205	1.6279577
1448091788848	0.275054931640625	0.8375244140625	9.69488525390625	-6.519129148477605	0	-18.778992	4.499817	-31.678772	67.232666	-4.9958196	1.6297679
1448091788888	0.282196044921875	0.848236083984375	9.679412841796875	-6.51876713157388	0	-18.719482	4.6188354	-31.739807	67.229706	-4.9985576	1.6278989
1448091788929	0.271484375	0.84228515625	9.707977294921875	-6.516957644641005	0	-18.418884	4.4387817	-31.858826	67.236084	-4.994349	1.6280009
1448091788969	0.2762451171875	0.8184814453125	9.725830078125	-6.517138548542482	0	-18.359375	4.319763	-31.799316	67.24234	-4.9899697	1.6287271
1448091789009	0.277435302734375	0.832763671875	9.696075439453125	-6.5193101718798045	0	-18.418884	4.4387817	-31.739807	67.24161	-4.9888396	1.6324646
1448091789049	0.2857666015625	0.83990478515625	9.71630859375	-6.513883798978608	0	-18.47992	4.4387817	-31.91986	67.24307	-4.987372	1.6336977
1448091789090	0.281005859375	0.850616455078125	9.657989501953125	-6.521845547014777	0	-19.018555	4.499817	-31.739807	67.234985	-4.9910874	1.637329
1448091789130	0.281005859375	0.881561279296875	9.8876953125	-6.482406496129944	0	-19.07959	4.4387817	-31.678772	67.232086	-4.995461	1.6315349
1448091789171	0.261962890625	0.848236083984375	9.343780517578125	-6.573338567299652	0	-19.07959	4.6188354	-31.3797	67.24515	-4.9899864	1.624406
1448091789211	0.3048095703125	0.833953857421875	9.935302734375	-6.478828048361881	0	-19.259644	4.499817	-30.958557	67.24362	-4.9834056	1.6421239
1448091789251	0.32147216796875	0.84228515625	9.6639404296875	-6.516053274316523	0	-18.719482	4.559326	-31.079102	67.23123	-4.9944806	1.6351037
1448091789291	0.258392333984375	0.8565673828125	9.697265625	-6.518405154526746	0	-18.179321	4.559326	-31.079102	67.23218	-4.9934964	1.6359774
1448091789331	0.3095703125	0.855377197265625	9.674652099609375	-6.514245278926494	0	-17.939758	4.319763	-31.619263	67.23248	-4.9890413	1.6458946
1448091789381	0.244110107421875	0.8565673828125	9.79248046875	-6.506121556049127	0	-17.63916	4.319763	-31.799316	67.23361	-4.9938483	1.6329794
1448091789422	0.271484375	0.88275146484375	9.753204345703125	-6.503958604760898	0	-17.759705	4.6188354	-31.97937	67.23151	-4.9941397	1.6354622
1448091789462	0.296478271484375	0.841094970703125	9.631805419921875	-6.524926850201352	0	-18.47992	4.8599243	-31.97937	67.22238	-4.9960556	1.6448979
1448091789502	0.25244140625	0.855377197265625	9.7496337890625	-6.511535145922295	0	-18.418884	5.1589966	-32.03888	67.227234	-4.9978848	1.6332686
1448091789542	0.28814697265625	0.832763671875	9.746063232421875	-6.510090652682276	0	-18.539429	5.0994873	-32.218933	67.23004	-4.993484	1.6392342
1448091789582	0.284576416015625	0.848236083984375	9.760345458984375	-6.5041387965942725	0	-18.47992	4.798889	-32.159424	67.22983	-4.992305	1.6423392
1448091789623	0.272674560546875	0.85894775390625	9.731781005859375	-6.510632263460016	0	-18.23883	4.6188354	-32.27997	67.23645	-4.9910946	1.6350654
1448091789663	0.303619384765625	0.8470458984375	9.669891357421875	-6.517138548542482	0	-17.999268	4.319763	-32.27997	67.233795	-4.990804	1.6397889
1448091789703	0.286956787109375	0.82086181640625	9.65203857421875	-6.526377876768956	0	-18.179321	4.319763	-32.339478	67.231445	-4.988192	1.649463
1448091789749	0.256011962890625	0.8660888671875	9.672271728515625	-6.521120954473496	0	-18.299866	4.258728	-32.27997	67.22101	-4.9982414	1.641896
1448091789789	0.284576416015625	0.803009033203125	9.762725830078125	-6.512618931551537	0	-18.778992	4.8599243	-31.858826	67.23996	-4.9866343	1.6401783
1448091789829	0.25482177734375	0.860137939453125	9.700836181640625	-6.517862263658365	0	-18.838501	4.978943	-32.03888	67.23349	-4.990704	1.6404815
1448091789869	0.284576416015625	0.8184814453125	9.724639892578125	-6.516053274316523	0	-19.07959	4.6798706	-32.339478	67.24777	-4.983387	1.6358442
1448091789909	0.27386474609375	0.83038330078125	9.71868896484375	-6.516776750687242	0	-18.959045	4.6798706	-32.27997	67.252045	-4.980365	1.6364094
1448091789950	0.29290771484375	0.851806640625	9.725830078125	-6.509549130875632	0	-18.899536	4.4387817	-32.759094	67.23297	-4.993287	1.6352769
1448091789990	0.303619384765625	0.833953857421875	9.681793212890625	-6.517319462393314	0	-18.899536	4.499817	-32.099915	67.23517	-4.9881387	1.6439302
1448091790031	0.258392333984375	0.8565673828125	9.734161376953125	-6.512799597159839	0	-18.899536	4.499817	-32.03888	67.22443	-4.9949584	1.6443328
1448091790071	0.313140869140625	0.861328125	9.64013671875	-6.518043217323042	0	-18.778992	4.319763	-31.97937	67.2193	-4.9944696	1.6533022
1448091790111	0.291717529296875	0.86846923828125	9.769866943359375	-6.50053682593065	0	-18.539429	4.4387817	-32.03888	67.21643	-4.99546	1.6553509
1448091790151	0.271484375	0.8280029296875	9.6591796875	-6.526559300223928	0	-18.539429	4.4387817	-32.398987	67.21289	-4.9990225	1.652395
1448091790191	0.282196044921875	0.829193115234375	9.729400634765625	-6.514064533991793	0	-18.598938	4.319763	-32.339478	67.22711	-4.992016	1.6471572
1448091790232	0.29052734375	0.862518310546875	9.71630859375	-6.5097296282615424	0	-18.598938	4.319763	-32.339478	67.22101	-4.995017	1.6494269
1448091790272	0.282196044921875	0.8565673828125	9.738922119140625	-6.5111739632527215	0	-18.47992	4.258728	-31.91986	67.21228	-5.002462	1.6452861
1448091790312	0.27862548828125	0.817291259765625	9.700836181640625	-6.520758718122936	0	-18.299866	4.019165	-32.099915	67.21991	-4.9949007	1.6513878
1448091790352	0.284576416015625	0.861328125	9.684173583984375	-6.515691595774808	0	-18.418884	4.4387817	-31.799316	67.21735	-4.998032	1.6479845
1448091790393	0.277435302734375	0.87322998046875	9.63775634765625	-6.525470909965785	0	-18.598938	4.559326	-31.619263	67.21213	-5.002465	1.6455379
1448091790433	0.3095703125	0.841094970703125	9.681793212890625	-6.515329956978043	0	-18.899536	4.6188354	-31.678772	67.21561	-4.9982495	1.6500857
1448091790473	0.277435302734375	0.845855712890625	9.738922119140625	-6.510812820164865	0	-19.198608	4.978943	-31.498718	67.22104	-4.994007	1.6517284
1448091790513	0.27386474609375	0.861328125	9.71392822265625	-6.512799597159839	0	-19.07959	4.8599243	-31.678772	67.220825	-4.9961696	1.6470323
1448091790553	0.271484375	0.850616455078125	9.717498779296875	-6.514245278926494	0	-18.47992	4.73938	-32.218933	67.223816	-4.9933853	1.6489747
1448091790594	0.281005859375	0.864898681640625	9.69012451171875	-6.514787573276026	0	-18.418884	4.559326	-32.27997	67.21832	-4.9972687	1.6482307
1448091790635	0.27386474609375	0.872039794921875	9.734161376953125	-6.508105507361161	0	-18.47992	4.4387817	-32.339478	67.210754	-5.002649	1.6472205
1448091790675	0.277435302734375	0.855377197265625	9.6829833984375	-6.517862263658365	0	-18.719482	4.6798706	-31.91986	67.2092	-5.002888	1.648996
1448091790715	0.30242919921875	0.857757568359375	9.70440673828125	-6.5104517166457185	0	-18.959045	4.6188354	-31.858826	67.20981	-5.002268	1.6495304
1448091790768	0.282196044921875	0.857757568359375	9.70916748046875	-6.512799597159839	0	-18.47992	4.9194336	-31.799316	67.214905	-5.0002575	1.6464853
1448091790809	0.2952880859375	0.838714599609375	9.66632080078125	-6.518586138069062	0	-17.939758	4.4387817	-31.858826	67.207184	-5.006424	1.6438333
1448091790849	0.300048828125	0.857757568359375	9.68536376953125	-6.513703073885302	0	-17.878723	4.1397095	-31.858826	67.201935	-5.0070524	1.6503524
1448091790889	0.294097900390625	0.831573486328125	9.6591796875	-6.522570299431086	0	-17.939758	4.319763	-31.97937	67.20529	-5.0045094	1.6511732
1448091790934	0.279815673828125	0.86846923828125	9.691314697265625	-6.514245278926494	0	-18.179321	4.1992188	-32.099915	67.19388	-5.0118213	1.6514599
1448091790974	0.279815673828125	0.85894775390625	9.662750244140625	-6.520034365195942	0	-18.539429	4.6798706	-31.799316	67.191284	-5.0143347	1.6495495
1448091791018	0.29052734375	0.8565673828125	9.696075439453125	-6.513703073885302	0	-18.659973	4.798889	-31.97937	67.198364	-5.010633	1.6474055
1448091791059	0.258392333984375	0.84942626953125	9.74249267578125	-6.512618931551537	0	-18.778992	4.6798706	-31.91986	67.19336	-5.0160656	1.6423653
1448091791111	0.279815673828125	0.84942626953125	9.717498779296875	-6.51316095810834	0	-18.838501	4.6188354	-32.218933	67.19971	-5.0126176	1.6407511
1448091791151	0.275054931640625	0.874420166015625	9.696075439453125	-6.513341653451801	0	-18.778992	4.8599243	-31.91986	67.188385	-5.0212893	1.6377141
1448091791192	0.29052734375	0.852996826171875	9.697265625	-6.514064533991793	0	-18.47992	4.499817	-31.91986	67.184875	-5.0243826	1.6358318
1448091791233	0.2857666015625	0.845855712890625	9.698455810546875	-6.515691595774808	0	-18.539429	4.499817	-31.739807	67.184204	-5.0231724	1.6397003
1448091791273	0.28814697265625	0.855377197265625	9.696075439453125	-6.514245278926494	0	-18.23883	4.499817	-31.799316	67.17499	-5.031699	1.6338071
1448091791313	0.261962890625	0.848236083984375	9.6925048828125	-6.519853301907512	0	-18.23883	4.1992188	-31.91986	67.17917	-5.0304203	1.6304275
1448091791353	0.267913818359375	0.864898681640625	9.679412841796875	-6.518405154526746	0	-18.119812	4.1397095	-31.97937	67.18414	-5.026815	1.6313118
1448091791393	0.282196044921875	0.851806640625	9.71630859375	-6.512618931551537	0	-18.359375	4.258728	-32.03888	67.17789	-5.03085	1.6295426
1448091791434	0.2952880859375	0.833953857421875	9.657989501953125	-6.522207903231939	0	-18.359375	4.019165	-31.97937	67.17975	-5.02756	1.6362338
1448091791474	0.263153076171875	0.874420166015625	9.70916748046875	-6.51316095810834	0	-18.359375	4.319763	-31.739807	67.179565	-5.02814	1.6351801
1448091791514	0.2857666015625	0.855377197265625	9.668701171875	-6.51876713157388	0	-18.598938	4.3792725	-31.799316	67.17911	-5.0251565	1.6427991
1448091791554	0.281005859375	0.852996826171875	9.715118408203125	-6.512799597159839	0	-18.539429	4.319763	-31.739807	67.17392	-5.0303903	1.6384702
1448091791594	0.284576416015625	0.87799072265625	9.722259521484375	-6.507383932483922	0	-18.719482	4.798889	-31.799316	67.1792	-5.0269065	1.6385843
1448091791635	0.28338623046875	0.84942626953125	9.6639404296875	-6.520758718122936	0	-18.359375	4.6798706	-31.799316	67.173004	-5.03053	1.6395459
1448091791675	0.30242919921875	0.86846923828125	9.707977294921875	-6.508285925746021	0	-18.418884	4.6798706	-31.678772	67.164246	-5.03327	1.6464796
1448091791715	0.286956787109375	0.874420166015625	9.706787109375	-6.509910135529882	0	-18.23883	4.9194336	-31.559753	67.158936	-5.036822	1.6462544
1448091791755	0.28814697265625	0.851806640625	9.700836181640625	-6.516053274316523	0	-18.299866	4.73938	-31.619263	67.16199	-5.0359187	1.6437714
1448091791796	0.28814697265625	0.8660888671875	9.705596923828125	-6.5111739632527215	0	-18.539429	4.499817	-31.498718	67.16565	-5.033428	1.643988
1448091791836	0.289337158203125	0.824432373046875	9.657989501953125	-6.524564193796307	0	-18.418884	4.73938	-31.439209	67.172424	-5.0274158	1.6477088
1448091791876	0.284576416015625	0.869659423828125	9.67584228515625	-6.515691595774808	0	-17.999268	4.3792725	-31.799316	67.17078	-5.028389	1.6479596
1448091791916	0.289337158203125	0.862518310546875	9.69488525390625	-6.51316095810834	0	-18.119812	4.499817	-31.91986	67.16647	-5.0305777	1.6494002
1448091791956	0.27862548828125	0.852996826171875	9.72344970703125	-6.511896368186605	0	-17.999268	4.6188354	-31.91986	67.16809	-5.0315166	1.6447524
1448091792001	0.261962890625	0.87322998046875	9.774627685546875	-6.503598250584686	0	-17.939758	4.4387817	-32.27997	67.16016	-5.036026	1.6462893
1448091792041	0.281005859375	0.85894775390625	9.67108154296875	-6.518586138069062	0	-18.659973	4.978943	-32.03888	67.156525	-5.038998	1.6448785
1448091792081	0.271484375	0.83514404296875	9.700836181640625	-6.519129148477605	0	-18.47992	4.559326	-31.799316	67.16446	-5.034728	1.6427826
1448091792122	0.28338623046875	0.84942626953125	9.66156005859375	-6.521120954473496	0	-18.23883	4.499817	-31.97937	67.16766	-5.031701	1.6449436
1448091792162	0.28814697265625	0.83990478515625	9.66156005859375	-6.521845547014777	0	-18.47992	4.499817	-31.799316	67.17395	-5.0265226	1.647448
1448091792202	0.2762451171875	0.82086181640625	9.657989501953125	-6.527103630807487	0	-18.119812	4.019165	-32.099915	67.18231	-5.0206485	1.6484407
1448091792243	0.28338623046875	0.84942626953125	9.744873046875	-6.508466354000341	0	-18.119812	4.3792725	-32.339478	67.18634	-5.018439	1.647473
1448091792287	0.271484375	0.857757568359375	9.75677490234375	-6.507203563422072	0	-18.23883	4.6798706	-32.159424	67.17621	-5.024327	1.6491741
1448091792327	0.28814697265625	0.857757568359375	9.697265625	-6.513703073885302	0	-18.23883	4.798889	-31.858826	67.16962	-5.0273733	1.6520698
1448091792367	0.263153076171875	0.83990478515625	9.725830078125	-6.515872430076728	0	-18.299866	4.978943	-31.559753	67.17166	-5.0247426	1.6550745
1448091792407	0.29290771484375	0.851806640625	9.715118408203125	-6.5111739632527215	0	-18.359375	4.798889	-31.619263	67.17081	-5.023991	1.6581477
1448091792452	0.29052734375	0.855377197265625	9.74725341796875	-6.506121556049127	0	-18.299866	4.559326	-31.799316	67.169525	-5.024986	1.6577517
1448091792492	0.275054931640625	0.831573486328125	9.686553955078125	-6.521302087626317	0	-18.299866	4.258728	-31.799316	67.18024	-5.019723	1.6537762
1448091792540	0.284576416015625	0.845855712890625	9.6829833984375	-6.518224180945287	0	-18.179321	4.258728	-31.91986	67.17807	-5.0217476	1.6523434
1448091792580	0.2762451171875	0.86370849609375	9.69012451171875	-6.514426033784343	0	-17.939758	4.1992188	-31.498718	67.181	-5.0194674	1.6532073
1448091792620	0.282196044921875	0.841094970703125	9.6829833984375	-6.5193101718798045	0	-18.359375	4.6188354	-31.739807	67.181366	-5.0176773	1.6568258
1448091792660	0.298858642578125	0.855377197265625	9.677032470703125	-6.515510771409126	0	-18.359375	4.6188354	-31.678772	67.17877	-5.018284	1.6593596
1448091792701	0.298858642578125	0.855377197265625	9.677032470703125	-6.515510771409126	0	-18.23883	4.499817	-31.858826	67.174164	-5.0196886	1.6630816
1448091792741	0.27862548828125	0.8470458984375	9.717498779296875	-6.513703073885302	0	-18.179321	4.6188354	-32.099915	67.17798	-5.017599	1.6621293
1448091792781	0.308380126953125	0.8565673828125	9.688934326171875	-6.512076994170855	0	-17.878723	4.499817	-32.159424	67.18109	-5.015469	1.6623738
1448091792822	0.27862548828125	0.84942626953125	9.71630859375	-6.513522358710244	0	-17.999268	4.559326	-31.858826	67.17261	-5.016652	1.6725012
1448091792862	0.2762451171875	0.85418701171875	9.69488525390625	-6.516414992616296	0	-17.878723	4.73938	-31.678772	67.17627	-5.0141034	1.6729109
1448091792902	0.271484375	0.843475341796875	9.717498779296875	-6.515329956978043	0	-17.999268	4.559326	-31.498718	67.18204	-5.011883	1.669299
1448091792944	0.286956787109375	0.8660888671875	9.71392822265625	-6.510090652682276	0	-17.939758	4.499817	-31.3797	67.180115	-5.012684	1.6703457
1448091792989	0.29052734375	0.872039794921875	9.70440673828125	-6.510090652682276	0	-18.119812	4.73938	-31.559753	67.1709	-5.019274	1.6689724
1448091793030	0.29052734375	0.855377197265625	9.6734619140625	-6.517319462393314	0	-18.299866	4.4387817	-31.678772	67.17755	-5.0147786	1.6693469
1448091793070	0.27386474609375	0.85418701171875	9.697265625	-6.516414992616296	0	-18.598938	4.8599243	-31.91986	67.17908	-5.0162935	1.6635171
1448091793110	0.2667236328125	0.826812744140625	9.687744140625	-6.523113968724989	0	-18.359375	4.8599243	-31.799316	67.18878	-5.012413	1.6578176
1448091793150	0.286956787109375	0.845855712890625	9.696075439453125	-6.515872430076728	0	-18.359375	4.559326	-31.858826	67.19385	-5.008155	1.6600741
1448091793190	0.277435302734375	0.845855712890625	9.707977294921875	-6.515510771409126	0	-17.999268	4.9194336	-31.91986	67.19095	-5.010176	1.6597289
1448091793231	0.25958251953125	0.869659423828125	9.679412841796875	-6.518948135042846	0	-18.299866	4.73938	-31.678772	67.18906	-5.014262	1.6530749
1448091793271	0.279815673828125	0.824432373046875	9.750823974609375	-6.511896368186605	0	-17.999268	4.258728	-31.91986	67.19803	-5.007668	1.6548402
1448091793311	0.303619384765625	0.829193115234375	9.729400634765625	-6.510812820164865	0	-18.299866	4.1992188	-31.97937	67.21207	-4.997515	1.6571919
1448091793352	0.275054931640625	0.85894775390625	9.767486572265625	-6.504859662267109	0	-18.418884	4.258728	-32.218933	67.206085	-5.0048304	1.6492164
1448091793392	0.294097900390625	0.833953857421875	9.6544189453125	-6.522932735625456	0	-18.47992	4.559326	-31.858826	67.20911	-5.0013046	1.6528548
1448091793433	0.265533447265625	0.861328125	9.7401123046875	-6.510090652682276	0	-18.539429	4.559326	-31.619263	67.21008	-5.0026183	1.6482818
1448091793473	0.282196044921875	0.8375244140625	9.636566162109375	-6.526922177241527	0	-18.539429	4.73938	-31.619263	67.21237	-5.0029387	1.6440599
1448091793513	0.27862548828125	0.8375244140625	9.707977294921875	-6.516595866679553	0	-18.47992	4.798889	-31.739807	67.21643	-5.0002413	1.6441666
1448091793553	0.272674560546875	0.848236083984375	9.677032470703125	-6.520577614921898	0	-18.359375	4.559326	-32.099915	67.213745	-5.0022664	1.6435573
1448091793593	0.2762451171875	0.8470458984375	9.688934326171875	-6.518405154526746	0	-18.899536	4.798889	-32.159424	67.21704	-4.999618	1.6447214
1448091793634	0.284576416015625	0.843475341796875	9.738922119140625	-6.510090652682276	0	-18.598938	4.499817	-32.27997	67.20978	-4.9999647	1.6549549
1448091793674	0.26434326171875	0.891082763671875	9.630615234375	-6.522389096332937	0	-18.838501	4.258728	-32.218933	67.19574	-5.0130434	1.6457478
1448091793714	0.275054931640625	0.843475341796875	9.68536376953125	-6.5196722485931105	0	-18.959045	4.4387817	-32.218933	67.19589	-5.009789	1.6531337
1448091793754	0.3048095703125	0.85418701171875	9.83056640625	-6.49154902176735	0	-18.23883	4.258728	-32.339478	67.19943	-5.0084076	1.6509928
1448091793795	0.27862548828125	0.848236083984375	9.5972900390625	-6.5318249525611485	0	-18.418884	4.559326	-32.398987	67.19531	-5.0114408	1.6501883
1448091793835	0.253631591796875	0.83990478515625	9.705596923828125	-6.520396521701485	0	-18.058777	4.559326	-32.458496	67.19452	-5.010329	1.6539514
1448091793875	0.2762451171875	0.869659423828125	9.7305908203125	-6.508646792125739	0	-17.999268	4.499817	-32.57904	67.19241	-5.0138993	1.6488345
1448091793921	0.29290771484375	0.822052001953125	9.7877197265625	-6.504679431094779	0	-18.47992	4.499817	-32.51953	67.19644	-5.007726	1.6571271
1448091793962	0.29052734375	0.84942626953125	9.6448974609375	-6.522570299431086	0	-18.47992	4.559326	-31.858826	67.19653	-5.0071692	1.6582463
1448091794002	0.28814697265625	0.861328125	9.763916015625	-6.503057793022578	0	-18.418884	4.73938	-31.739807	67.196625	-5.0065374	1.6596273
1448091794042	0.267913818359375	0.83990478515625	9.67822265625	-6.522389096332937	0	-17.999268	4.73938	-31.678772	67.203674	-5.0037584	1.6553841
1448091794082	0.284576416015625	0.872039794921875	9.762725830078125	-6.502157226851155	0	-17.878723	4.6798706	-31.739807	67.19647	-5.009248	1.6535121
1448091794122	0.2667236328125	0.822052001953125	9.767486572265625	-6.511715752104294	0	-18.119812	4.6188354	-32.099915	67.204834	-5.0026164	1.6562614
1448091794163	0.272674560546875	0.870849609375	9.782958984375	-6.501076871311157	0	-18.23883	4.559326	-32.218933	67.206055	-5.0057564	1.6471192
1448091794203	0.289337158203125	0.829193115234375	9.744873046875	-6.510632263460016	0	-18.23883	4.499817	-32.099915	67.20404	-5.0033784	1.6557227
1448091794243	0.29766845703125	0.861328125	9.66156005859375	-6.517138548542482	0	-18.299866	4.6798706	-31.619263	67.20273	-5.0033016	1.6578953
1448091794291	0.261962890625	0.833953857421875	9.741302490234375	-6.514606798566976	0	-17.939758	4.6188354	-31.739807	67.20596	-5.004023	1.6512806
1448091794331	0.270294189453125	0.862518310546875	9.7115478515625	-6.513522358710244	0	-18.179321	4.8599243	-31.739807	67.21521	-4.9972153	1.6531053
1448091794371	0.275054931640625	0.87799072265625	9.722259521484375	-6.508827240123836	0	-18.23883	4.978943	-31.858826	67.20453	-5.0063767	1.6479441
1448091794418	0.286956787109375	0.8375244140625	9.724639892578125	-6.512799597159839	0	-18.23883	4.6798706	-32.03888	67.20203	-5.00462	1.6558877
1448091794459	0.30718994140625	0.83514404296875	9.743682861328125	-6.507203563422072	0	-18.299866	4.6798706	-32.218933	67.20572	-5.0008087	1.6591713
1448091794504	0.25244140625	0.831573486328125	9.68060302734375	-6.525652283269074	0	-18.23883	4.258728	-31.858826	67.21619	-4.9975076	1.650973
1448091794545	0.294097900390625	0.841094970703125	9.693695068359375	-6.515872430076728	0	-18.418884	4.559326	-31.619263	67.22232	-4.992986	1.6521567
1448091794585	0.2857666015625	0.8660888671875	9.662750244140625	-6.518043217323042	0	-18.418884	4.559326	-31.559753	67.213806	-4.9994974	1.6499128
1448091794625	0.3048095703125	0.84942626953125	9.681793212890625	-6.514787573276026	0	-18.058777	4.499817	-31.678772	67.21362	-4.9977245	1.6543169
1448091794665	0.300048828125	0.84942626953125	9.710357666015625	-6.5111739632527215	0	-18.058777	4.6188354	-31.739807	67.21478	-4.996623	1.6551317
1448091794706	0.261962890625	0.845855712890625	9.6591796875	-6.525289546687844	0	-17.939758	4.8599243	-31.858826	67.21921	-4.9974313	1.6465045
1448091794746	0.271484375	0.82562255859375	9.70916748046875	-6.5193101718798045	0	-18.299866	5.1589966	-32.159424	67.2312	-4.98989	1.6458795
1448091794786	0.27386474609375	0.8565673828125	9.70440673828125	-6.515691595774808	0	-18.418884	5.0994873	-32.218933	67.22604	-4.992687	1.6472092
1448091794827	0.26434326171875	0.857757568359375	9.657989501953125	-6.523295211828294	0	-18.418884	4.8599243	-32.51953	67.21924	-4.9977193	1.6457918
1448091794867	0.282196044921875	0.872039794921875	9.696075439453125	-6.512618931551537	0	-18.23883	4.6188354	-32.51953	67.2038	-5.0067472	1.6482445
1448091794907	0.267913818359375	0.84466552734375	9.67822265625	-6.521664383895306	0	-17.999268	4.499817	-32.458496	67.20978	-5.002862	1.6481647
1448091794947	0.258392333984375	0.857757568359375	9.69488525390625	-6.518586138069062	0	-18.058777	4.6798706	-31.91986	67.21167	-5.001479	1.6485229
1448091794987	0.291717529296875	0.841094970703125	9.72344970703125	-6.511715752104294	0	-18.179321	4.6188354	-31.799316	67.2153	-4.996896	1.653702
1448091795028	0.29052734375	0.85418701171875	9.697265625	-6.513883798978608	0	-18.23883	4.6798706	-31.858826	67.21414	-4.9970455	1.6551329
1448091795068	0.291717529296875	0.874420166015625	9.71630859375	-6.507744700193338	0	-18.359375	4.6798706	-31.739807	67.20758	-5.0018907	1.6537744
1448091795108	0.284576416015625	0.857757568359375	9.67108154296875	-6.518224180945287	0	-18.418884	4.6188354	-32.159424	67.20001	-5.0050635	1.6578906
1448091795148	0.271484375	0.8565673828125	9.706787109375	-6.51496835791313	0	-18.058777	4.6798706	-32.03888	67.20325	-5.00352	1.656576
1448091795188	0.291717529296875	0.836334228515625	9.681793212890625	-6.51876713157388	0	-17.999268	4.499817	-31.91986	67.20514	-5.0015526	1.6582808
1448091795229	0.282196044921875	0.84942626953125	9.677032470703125	-6.518948135042846	0	-18.119812	4.559326	-31.91986	67.20621	-5.000997	1.6579624
1448091795269	0.28814697265625	0.850616455078125	9.712738037109375	-6.512438275851692	0	-17.999268	4.559326	-31.739807	67.21188	-4.996937	1.6588284
1448091795309	0.28338623046875	0.855377197265625	9.677032470703125	-6.517862263658365	0	-18.359375	4.019165	-31.739807	67.20404	-5.001351	1.6604148
1448091795349	0.275054931640625	0.861328125	9.715118408203125	-6.512438275851692	0	-18.23883	3.9596558	-31.858826	67.200165	-5.005005	1.6578128
1448091795389	0.272674560546875	0.848236083984375	9.71868896484375	-6.514245278926494	0	-18.179321	3.779602	-31.678772	67.199524	-5.0051904	1.6583705
1448091795430	0.282196044921875	0.879180908203125	9.68536376953125	-6.51316095810834	0	-18.359375	4.019165	-31.678772	67.19183	-5.0096965	1.6595192
1448091795470	0.2762451171875	0.84942626953125	9.691314697265625	-6.517681319949613	0	-18.359375	4.3792725	-31.799316	67.19763	-5.0073376	1.6562123
1448091795510	0.277435302734375	0.855377197265625	9.684173583984375	-6.514064533991793	0	-18.179321	4.6798706	-31.678772	67.19269	-5.0089827	1.6598771
1448091795550	0.284576416015625	0.86846923828125	9.65203857421875	-6.519491205251091	0	-18.659973	4.798889	-31.799316	67.18091	-5.0160995	1.661189
1448091795596	0.303619384765625	0.881561279296875	9.7115478515625	-6.505580685360202	0	-18.719482	4.9194336	-31.739807	67.17798	-5.0178294	1.6615994
1448091795637	0.27862548828125	0.836334228515625	9.70440673828125	-6.517319462393314	0	-18.719482	4.8599243	-31.858826	67.17908	-5.018584	1.6581873
1448091795677	0.286956787109375	0.83990478515625	9.707977294921875	-6.51496835791313	0	-18.598938	5.1589966	-31.739807	67.18237	-5.0154653	1.6604367
1448091795717	0.27386474609375	0.8375244140625	9.677032470703125	-6.522026720126437	0	-18.598938	5.4595947	-31.91986	67.189026	-5.0105777	1.6617124
1448091795757	0.2857666015625	0.85418701171875	9.684173583984375	-6.516595866679553	0	-18.539429	5.279541	-31.91986	67.188416	-5.010974	1.6617748
1448091795798	0.298858642578125	0.857757568359375	9.707977294921875	-6.5104517166457185	0	-18.47992	5.4595947	-31.439209	67.18451	-5.0120454	1.6651756
1448091795838	0.291717529296875	0.851806640625	9.668701171875	-6.518405154526746	0	-18.659973	4.978943	-31.498718	67.18417	-5.0117383	1.6663897
1448091795890	0.28338623046875	0.843475341796875	9.707977294921875	-6.51496835791313	0	-18.47992	5.0994873	-31.619263	67.198975	-5.0013676	1.6681238
1448091795931	0.28338623046875	0.85418701171875	9.69964599609375	-6.514606798566976	0	-18.359375	4.9194336	-31.678772	67.20346	-4.998378	1.6682439
1448091795971	0.28814697265625	0.841094970703125	9.662750244140625	-6.5214832307663695	0	-18.23883	4.73938	-31.678772	67.199036	-5.0012035	1.6683933
1448091796011	0.275054931640625	0.857757568359375	9.700836181640625	-6.515149152479924	0	-18.23883	4.6188354	-31.678772	67.19946	-5.002053	1.6657704
1448091796051	0.281005859375	0.8280029296875	9.706787109375	-6.517862263658365	0	-17.759705	4.3792725	-31.799316	67.198	-5.004173	1.6630613
1448091796092	0.272674560546875	0.86370849609375	9.65203857421875	-6.522026720126437	0	-17.518616	4.0786743	-31.97937	67.19327	-5.008123	1.6610217
1448091796132	0.2762451171875	0.84942626953125	9.73773193359375	-6.510632263460016	0	-17.69867	4.019165	-32.218933	67.197784	-5.005537	1.660184
1448091796176	0.30242919921875	0.855377197265625	9.660369873046875	-6.5175003861951435	0	-18.179321	4.319763	-32.218933	67.190216	-5.009136	1.6632758
1448091796216	0.279815673828125	0.843475341796875	9.665130615234375	-6.522026720126437	0	-18.778992	4.6188354	-32.099915	67.19354	-5.0049887	1.6679246
1448091796256	0.2667236328125	0.832763671875	9.698455810546875	-6.520577614921898	0	-19.018555	5.1589966	-31.858826	67.19809	-5.004195	1.6628388
1448091796297	0.2762451171875	0.84466552734375	9.6829833984375	-6.5196722485931105	0	-19.07959	5.1589966	-31.739807	67.20044	-5.002981	1.6621028
1448091796337	0.27862548828125	0.86846923828125	9.71630859375	-6.510632263460016	0	-18.778992	5.3390503	-31.97937	67.194336	-5.0080767	1.659528
1448091796377	0.275054931640625	0.851806640625	9.693695068359375	-6.517138548542482	0	-18.659973	5.1589966	-31.97937	67.20386	-5.0035486	1.6555766
1448091796417	0.27862548828125	0.860137939453125	9.69488525390625	-6.515149152479924	0	-18.418884	5.039978	-31.91986	67.20474	-5.0033474	1.6547033
1448091796458	0.2857666015625	0.8470458984375	9.710357666015625	-6.513703073885302	0	-18.418884	4.798889	-32.099915	67.203064	-5.005258	1.6528028
1448091796498	0.281005859375	0.85418701171875	9.696075439453125	-6.515510771409126	0	-18.659973	4.73938	-32.03888	67.20166	-5.006574	1.6518414
1448091796548	0.289337158203125	0.838714599609375	9.705596923828125	-6.515149152479924	0	-18.659973	4.6798706	-32.03888	67.20221	-5.0052204	1.6541955
1448091796589	0.281005859375	0.848236083984375	9.706787109375	-6.514787573276026	0	-18.659973	4.798889	-32.159424	67.20816	-5.0009913	1.6550187
1448091796629	0.281005859375	0.851806640625	9.719879150390625	-6.5122576300586745	0	-18.598938	5.039978	-32.03888	67.214264	-4.995999	1.6573702
1448091796669	0.300048828125	0.84466552734375	9.686553955078125	-6.515510771409126	0	-18.47992	5.3390503	-31.91986	67.213745	-4.998305	1.6528026
1448091796709	0.289337158203125	0.845855712890625	9.697265625	-6.515329956978043	0	-18.539429	5.279541	-31.739807	67.21283	-4.9970007	1.65722
1448091796749	0.281005859375	0.85418701171875	9.69964599609375	-6.51496835791313	0	-18.659973	5.3390503	-31.559753	67.21484	-4.994437	1.6601369
1448091796790	0.277435302734375	0.861328125	9.710357666015625	-6.512799597159839	0	-18.778992	5.218506	-31.559753	67.21121	-4.9976287	1.6582478
1448091796830	0.277435302734375	0.84466552734375	9.686553955078125	-6.518948135042846	0	-18.899536	5.039978	-31.619263	67.205414	-5.0020347	1.6567527
1448091796870	0.300048828125	0.85894775390625	9.6734619140625	-6.515329956978043	0	-18.899536	4.8599243	-31.799316	67.19876	-5.005688	1.658338
1448091796911	0.284576416015625	0.84228515625	9.715118408203125	-6.513883798978608	0	-18.899536	4.9194336	-31.619263	67.20413	-5.0014906	1.6599637
1448091796951	0.281005859375	0.85894775390625	9.700836181640625	-6.514064533991793	0	-18.778992	4.978943	-31.559753	67.205536	-4.9998794	1.6616299
1448091796991	0.284576416015625	0.85894775390625	9.707977294921875	-6.514245278926494	0	-18.778992	5.3390503	-31.259155	67.20123	-5.0031457	1.660514
1448091797032	0.284576416015625	0.857757568359375	9.706787109375	-6.512799597159839	0	-18.899536	5.218506	-31.498718	67.19742	-5.0061417	1.6593337
1448091797072	0.29290771484375	0.851806640625	9.7115478515625	-6.511715752104294	0	-18.539429	5.039978	-31.799316	67.19556	-5.0060444	1.662382
1448091797112	0.2667236328125	0.85418701171875	9.719879150390625	-6.514064533991793	0	-18.659973	5.0994873	-31.619263	67.19318	-5.006588	1.664723
1448091797152	0.281005859375	0.836334228515625	9.693695068359375	-6.518586138069062	0	-18.359375	4.6798706	-31.858826	67.19504	-5.007726	1.6592679
1448091797192	0.2952880859375	0.83990478515625	9.7115478515625	-6.511535145922295	0	-18.539429	4.73938	-31.858826	67.19507	-5.0070024	1.660921
1448091797233	0.2952880859375	0.848236083984375	9.687744140625	-6.515510771409126	0	-18.719482	4.798889	-31.91986	67.1958	-5.00491	1.6646667
1448091797273	0.2952880859375	0.848236083984375	9.687744140625	-6.515510771409126	0	-18.359375	4.9194336	-32.099915	67.193146	-5.005222	1.6679559
1448091797313	0.272674560546875	0.855377197265625	9.64251708984375	-6.524745516989479	0	-18.299866	5.039978	-32.27997	67.192566	-5.0047565	1.6699258
1448091797353	0.284576416015625	0.8565673828125	9.7115478515625	-6.5122576300586745	0	-18.119812	4.798889	-32.218933	67.19287	-5.003757	1.671799
1448091797395	0.301239013671875	0.85418701171875	9.6829833984375	-6.514426033784343	0	-18.058777	4.6798706	-32.339478	67.184875	-5.007733	1.6746571
1448091797435	0.261962890625	0.879180908203125	9.68060302734375	-6.516957644641005	0	-18.359375	4.499817	-32.339478	67.17609	-5.0137386	1.6740363
1448091797478	0.279815673828125	0.84228515625	9.70440673828125	-6.516234128495833	0	-18.418884	4.3792725	-32.458496	67.1709	-5.0159297	1.676812
1448091797519	0.277435302734375	0.867279052734375	9.688934326171875	-6.515149152479924	0	-18.659973	4.6188354	-32.339478	67.16705	-5.0183806	1.6769173
1448091797559	0.277435302734375	0.848236083984375	9.69964599609375	-6.516414992616296	0	-18.719482	4.798889	-32.27997	67.16559	-5.0208397	1.6734153
1448091797599	0.282196044921875	0.848236083984375	9.7020263671875	-6.515329956978043	0	-18.838501	5.039978	-32.03888	67.16818	-5.0188456	1.6741142
1448091797639	0.300048828125	0.85418701171875	9.706787109375	-6.510993386761892	0	-18.959045	4.978943	-31.858826	67.16684	-5.018305	1.6774107
1448091797680	0.294097900390625	0.851806640625	9.696075439453125	-6.513883798978608	0	-18.659973	4.798889	-31.91986	67.168	-5.017812	1.6768178
1448091797724	0.289337158203125	0.85418701171875	9.6829833984375	-6.516234128495833	0	-18.659973	4.6798706	-31.91986	67.17377	-5.015024	1.6745604
1448091797764	0.2762451171875	0.86370849609375	9.688934326171875	-6.515872430076728	0	-18.598938	5.1589966	-31.858826	67.17499	-5.0143704	1.6741996
1448091797804	0.282196044921875	0.870849609375	9.703216552734375	-6.511715752104294	0	-18.418884	5.039978	-32.03888	67.169586	-5.018735	1.6722502
1448091797845	0.2762451171875	0.855377197265625	9.696075439453125	-6.516776750687242	0	-18.058777	4.978943	-32.03888	67.17233	-5.016898	1.672358
1448091797885	0.29290771484375	0.85894775390625	9.6829833984375	-6.51496835791313	0	-17.939758	4.9194336	-32.159424	67.175354	-5.014152	1.6741434
1448091797925	0.28338623046875	0.843475341796875	9.688934326171875	-6.517862263658365	0	-17.939758	4.6798706	-31.97937	67.17929	-5.013118	1.6706209
1448091797965	0.261962890625	0.85418701171875	9.674652099609375	-6.521664383895306	0	-18.359375	4.978943	-31.91986	67.18353	-5.012472	1.6656845
1448091798007	0.2667236328125	0.851806640625	9.71868896484375	-6.514606798566976	0	-19.198608	5.218506	-31.678772	67.18524	-5.0132184	1.6613158
1448091798048	0.286956787109375	0.872039794921875	9.68536376953125	-6.513522358710244	0	-19.259644	4.9194336	-31.799316	67.178894	-5.0165114	1.6632974
1448091798088	0.29290771484375	0.86370849609375	9.6829833984375	-6.514245278926494	0	-19.378662	4.8599243	-31.799316	67.17804	-5.0158772	1.6660731
1448091798128	0.265533447265625	0.851806640625	9.681793212890625	-6.520396521701485	0	-19.198608	4.258728	-31.858826	67.17987	-5.015992	1.6630155
1448091798176	0.258392333984375	0.841094970703125	9.710357666015625	-6.51876713157388	0	-18.838501	4.3792725	-32.099915	67.17731	-5.017285	1.6638755
1448091798217	0.294097900390625	0.855377197265625	9.674652099609375	-6.516595866679553	0	-18.598938	4.73938	-32.03888	67.16916	-5.019841	1.6703256
1448091798257	0.305999755859375	0.848236083984375	9.69964599609375	-6.512076994170855	0	-18.778992	4.8599243	-32.099915	67.16376	-5.021694	1.6742057
1448091798297	0.28814697265625	0.850616455078125	9.660369873046875	-6.519491205251091	0	-18.719482	5.1589966	-32.159424	67.16199	-5.022356	1.6753672
1448091798338	0.286956787109375	0.833953857421875	9.679412841796875	-6.520215438460051	0	-18.47992	4.8599243	-32.03888	67.17139	-5.015639	1.6767509
1448091798378	0.294097900390625	0.85418701171875	9.679412841796875	-6.516053274316523	0	-18.539429	5.039978	-31.91986	67.169495	-5.016689	1.6771334
1448091798418	0.281005859375	0.852996826171875	9.706787109375	-6.514064533991793	0	-18.47992	4.9194336	-31.91986	67.173706	-5.0150695	1.6745121
1448091798458	0.286956787109375	0.836334228515625	9.668701171875	-6.5214832307663695	0	-18.47992	4.8599243	-31.799316	67.17377	-5.0154343	1.6735967
1448091798499	0.2952880859375	0.857757568359375	9.6734619140625	-6.516234128495833	0	-18.539429	4.9194336	-32.03888	67.16843	-5.018469	1.6746032
1448091798544	0.29766845703125	0.857757568359375	9.6639404296875	-6.517319462393314	0	-18.47992	4.798889	-31.799316	67.159546	-5.0221095	1.679618
1448091798585	0.28338623046875	0.843475341796875	9.719879150390625	-6.51316095810834	0	-18.359375	4.9194336	-31.91986	67.15979	-5.023755	1.6753948
1448091798625	0.286956787109375	0.852996826171875	9.71630859375	-6.511715752104294	0	-18.299866	4.9194336	-32.27997	67.16962	-5.0179906	1.6739546
1448091798665	0.286956787109375	0.845855712890625	9.6734619140625	-6.5193101718798045	0	-18.359375	4.559326	-32.27997	67.1709	-5.0173197	1.6757324
1448091798706	0.284576416015625	0.883941650390625	9.665130615234375	-6.515149152479924	0	-18.418884	4.8599243	-32.398987	67.16986	-5.014588	1.6814864
1448091798746	0.282196044921875	0.84228515625	9.697265625	-6.516957644641005	0	-18.659973	4.6798706	-32.218933	67.16092	-5.0196652	1.683226
1448091798786	0.289337158203125	0.8280029296875	9.706787109375	-6.516595866679553	0	-18.47992	4.6188354	-32.099915	67.165436	-5.0177755	1.6807752
1448091798826	0.28338623046875	0.85418701171875	9.6734619140625	-6.518586138069062	0	-18.539429	5.039978	-32.159424	67.17236	-5.012429	1.6827154
1448091798867	0.2762451171875	0.850616455078125	9.68060302734375	-6.519129148477605	0	-18.539429	5.0994873	-32.03888	67.17145	-5.0137734	1.6809465
1448091798907	0.26434326171875	0.8375244140625	9.70440673828125	-6.5193101718798045	0	-18.418884	5.0994873	-32.218933	67.17944	-5.0107875	1.6757952
1448091798947	0.2667236328125	0.84942626953125	9.68536376953125	-6.520034365195942	0	-18.539429	5.0994873	-32.159424	67.18179	-5.0111485	1.6714016
1448091798988	0.29290771484375	0.861328125	9.7020263671875	-6.511715752104294	0	-18.719482	5.0994873	-31.97937	67.188446	-5.008855	1.6666384
1448091799028	0.270294189453125	0.848236083984375	9.684173583984375	-6.519853301907512	0	-18.838501	5.218506	-31.91986	67.19165	-5.0084558	1.6626855
1448091799068	0.30242919921875	0.83038330078125	9.68060302734375	-6.518224180945287	0	-18.899536	5.218506	-31.619263	67.19824	-5.004701	1.6644393
1448091799108	0.281005859375	0.850616455078125	9.68060302734375	-6.518405154526746	0	-19.018555	5.279541	-31.439209	67.19946	-5.001432	1.6672364
1448091799149	0.2667236328125	0.8470458984375	9.69964599609375	-6.518224180945287	0	-18.539429	4.73938	-31.678772	67.20569	-5.0008097	1.6591789
1448091799189	0.275054931640625	0.85418701171875	9.706787109375	-6.514787573276026	0	-18.23883	4.6188354	-31.91986	67.20676	-4.999822	1.6598696
1448091799229	0.301239013671875	0.838714599609375	9.681793212890625	-6.516957644641005	0	-18.23883	4.499817	-32.218933	67.20386	-4.999288	1.6655388
1448091799269	0.294097900390625	0.857757568359375	9.70440673828125	-6.511715752104294	0	-18.23883	4.499817	-32.27997	67.20099	-5.0001426	1.667919
1448091799310	0.298858642578125	0.876800537109375	9.715118408203125	-6.506482185755996	0	-18.359375	4.9194336	-32.159424	67.19803	-5.0027337	1.6663517
1448091799350	0.29290771484375	0.84466552734375	9.696075439453125	-6.515149152479924	0	-18.719482	4.978943	-32.03888	67.1893	-5.0059886	1.6720251
1448091799391	0.27862548828125	0.864898681640625	9.691314697265625	-6.51496835791313	0	-18.899536	5.3390503	-31.91986	67.18439	-5.010054	1.6699796
1448091799431	0.28814697265625	0.843475341796875	9.70440673828125	-6.514787573276026	0	-18.899536	5.6396484	-31.678772	67.18933	-5.0081763	1.666853
1448091799471	0.289337158203125	0.861328125	9.698455810546875	-6.512799597159839	0	-19.07959	5.6396484	-31.91986	67.18341	-5.0110865	1.6691052
1448091799511	0.298858642578125	0.8375244140625	9.69012451171875	-6.516234128495833	0	-19.07959	5.519104	-31.799316	67.184875	-5.0084224	1.6730441
1448091799552	0.2762451171875	0.83990478515625	9.672271728515625	-6.522026720126437	0	-18.838501	5.3985596	-31.858826	67.19052	-5.006572	1.6688032
1448091799592	0.300048828125	0.84228515625	9.693695068359375	-6.514787573276026	0	-18.719482	5.039978	-32.03888	67.18884	-5.00613	1.6723636
1448091799632	0.260772705078125	0.85894775390625	9.65679931640625	-6.52383900117742	0	-18.659973	4.978943	-31.799316	67.19437	-5.0039845	1.6689862
1448091799672	0.2667236328125	0.85418701171875	9.706787109375	-6.516053274316523	0	-18.418884	4.798889	-32.159424	67.192444	-5.0048366	1.669922
1448091799717	0.27386474609375	0.848236083984375	9.712738037109375	-6.51496835791313	0	-18.23883	4.8599243	-32.27997	67.19525	-5.0062337	1.6623881
1448091799757	0.267913818359375	0.855377197265625	9.68536376953125	-6.518948135042846	0	-18.299866	4.798889	-32.159424	67.20087	-5.004278	1.6584342
1448091799797	0.275054931640625	0.867279052734375	9.68536376953125	-6.516053274316523	0	-18.598938	5.0994873	-32.398987	67.19562	-5.0087986	1.6558834
1448091799837	0.29052734375	0.845855712890625	9.72821044921875	-6.5104517166457185	0	-18.539429	5.039978	-32.218933	67.197235	-5.006986	1.657648
1448091799878	0.291717529296875	0.861328125	9.703216552734375	-6.511715752104294	0	-18.899536	4.6798706	-32.03888	67.19165	-5.009937	1.6592138
1448091799918	0.271484375	0.850616455078125	9.705596923828125	-6.516053274316523	0	-19.1391	4.978943	-31.799316	67.19321	-5.009872	1.6570146
1448091799958	0.289337158203125	0.84228515625	9.700836181640625	-6.515329956978043	0	-18.838501	4.9194336	-31.858826	67.19943	-5.0076375	1.6527925
1448091799998	0.2857666015625	0.841094970703125	9.712738037109375	-6.514245278926494	0	-18.719482	4.9194336	-31.858826	67.20288	-5.005412	1.6527296
1448091800039	0.2762451171875	0.841094970703125	9.706787109375	-6.516595866679553	0	-18.539429	4.978943	-31.858826	67.21002	-5.0017343	1.6504742
1448091800079	0.28338623046875	0.86370849609375	9.707977294921875	-6.511896368186605	0	-18.299866	4.559326	-31.91986	67.20984	-5.0042825	1.6447946
1448091800134	0.29290771484375	0.836334228515625	9.706787109375	-6.514787573276026	0	-19.018555	4.3792725	-31.799316	67.20734	-5.0077715	1.6404641
1448091800174	0.27862548828125	0.851806640625	9.684173583984375	-6.518043217323042	0	-19.499207	4.73938	-31.678772	67.20816	-5.0063324	1.6425391
1448091800214	0.28338623046875	0.83990478515625	9.679412841796875	-6.519853301907512	0	-19.319153	4.978943	-31.678772	67.20813	-5.006901	1.641241
1448091800261	0.294097900390625	0.86370849609375	9.700836181640625	-6.51135454963898	0	-19.499207	5.4595947	-31.559753	67.20181	-5.007958	1.6484067
1448091800302	0.28338623046875	0.85894775390625	9.669891357421875	-6.518405154526746	0	-19.07959	5.4595947	-31.799316	67.19342	-5.012499	1.6506011
1448091800342	0.291717529296875	0.864898681640625	9.660369873046875	-6.517681319949613	0	-18.899536	5.279541	-31.739807	67.187744	-5.0152264	1.6528279
1448091800382	0.263153076171875	0.83514404296875	9.70916748046875	-6.519129148477605	0	-18.778992	4.9194336	-31.91986	67.19205	-5.01332	1.650732
1448091800422	0.282196044921875	0.841094970703125	9.715118408203125	-6.514426033784343	0	-18.598938	4.73938	-31.97937	67.199066	-5.0092473	1.6495577
1448091800463	0.2762451171875	0.861328125	9.69012451171875	-6.516053274316523	0	-18.539429	4.798889	-31.739807	67.19531	-5.011907	1.6490453
1448091800503	0.300048828125	0.8470458984375	9.722259521484375	-6.5097296282615424	0	-18.299866	4.6798706	-31.91986	67.19684	-5.0093875	1.6526111
1448091800543	0.29290771484375	0.872039794921875	9.69012451171875	-6.511896368186605	0	-18.299866	4.6798706	-32.159424	67.19833	-5.00928	1.6506163
1448091800586	0.282196044921875	0.85418701171875	9.688934326171875	-6.516414992616296	0	-18.659973	4.798889	-31.858826	67.190704	-5.013686	1.6519233
1448091800626	0.291717529296875	0.84942626953125	9.725830078125	-6.510090652682276	0	-19.018555	4.6798706	-31.91986	67.19687	-5.0091934	1.6530485
1448091800667	0.281005859375	0.86846923828125	9.68060302734375	-6.515691595774808	0	-19.378662	4.6798706	-31.678772	67.19055	-5.0133967	1.6528685
1448091800707	0.279815673828125	0.832763671875	9.687744140625	-6.520215438460051	0	-19.619751	4.798889	-31.498718	67.197266	-5.007468	1.6564643
1448091800747	0.270294189453125	0.848236083984375	9.667510986328125	-6.522389096332937	0	-19.67926	4.9194336	-31.559753	67.19812	-5.007427	1.6552806
1448091800787	0.29052734375	0.83990478515625	9.67822265625	-6.518948135042846	0	-19.619751	5.4595947	-31.739807	67.20386	-5.002807	1.6573405
1448091800827	0.279815673828125	0.84942626953125	9.68536376953125	-6.518043217323042	0	-19.499207	5.5786133	-31.858826	67.20395	-5.0030975	1.6565027
1448091800868	0.294097900390625	0.84228515625	9.710357666015625	-6.51316095810834	0	-19.259644	5.9387207	-31.91986	67.203674	-5.001912	1.6596895
1448091800908	0.282196044921875	0.848236083984375	9.70916748046875	-6.514245278926494	0	-19.018555	5.8792114	-31.91986	67.197845	-5.0051823	1.6609013
1448091800949	0.271484375	0.862518310546875	9.69964599609375	-6.523295211828294	0	-18.47992	5.758667	-32.03888	67.20651	-4.999737	1.6604352
1448091800990	0.265533447265625	0.841094970703125	9.66632080078125	-6.524382880620173	0	-18.838501	5.519104	-31.739807	67.21753	-4.9954348	1.6537346
1448091801030	0.258392333984375	0.879180908203125	9.69964599609375	-6.514606798566976	0	-18.959045	5.218506	-31.678772	67.20361	-5.004056	1.6547726
1448091801070	0.31195068359375	0.843475341796875	9.65203857421875	-6.519129148477605	0	-18.959045	4.9194336	-31.318665	67.19211	-5.0086756	1.6614951
1448091801110	0.281005859375	0.829193115234375	9.657989501953125	-6.525108193433587	0	-19.198608	4.8599243	-31.259155	67.19885	-5.0044227	1.661181
1448091801151	0.2857666015625	0.857757568359375	9.71630859375	-6.5111739632527215	0	-19.319153	4.9194336	-31.318665	67.20361	-5.0023108	1.658852
1448091801191	0.2857666015625	0.81610107421875	9.710357666015625	-6.518405154526746	0	-19.499207	5.3390503	-31.079102	67.212524	-4.9964175	1.6590751
1448091801231	0.281005859375	0.8756103515625	9.67584228515625	-6.515329956978043	0	-19.67926	5.279541	-31.199646	67.20657	-5.000448	1.6586899
1448091801272	0.2857666015625	0.862518310546875	9.73773193359375	-6.507203563422072	0	-19.619751	5.519104	-31.318665	67.206696	-5.0027246	1.6531898
1448091801312	0.296478271484375	0.845855712890625	9.6734619140625	-6.517862263658365	0	-19.619751	5.519104	-31.318665	67.20358	-5.0022798	1.6589785
1448091801352	0.275054931640625	0.851806640625	9.707977294921875	-6.51496835791313	0	-19.619751	5.758667	-31.3797	67.20593	-5.0015764	1.6570573
1448091801392	0.2762451171875	0.85894775390625	9.69964599609375	-6.51496835791313	0	-19.918823	5.519104	-31.439209	67.1994	-5.0090537	1.64951
1448091801433	0.291717529296875	0.855377197265625	9.700836181640625	-6.512980272678231	0	-19.73877	5.519104	-31.439209	67.198364	-5.008435	1.6525365
1448091801473	0.286956787109375	0.862518310546875	9.67822265625	-6.516053274316523	0	-19.73877	5.519104	-31.199646	67.19083	-5.0122814	1.6550193
1448091801513	0.2667236328125	0.85418701171875	9.686553955078125	-6.519129148477605	0	-19.73877	5.519104	-31.199646	67.191895	-5.012898	1.6519465
1448091801554	0.29052734375	0.8565673828125	9.686553955078125	-6.515149152479924	0	-19.918823	5.999756	-31.259155	67.19794	-5.0099273	1.649699
1448091801594	0.246490478515625	0.852996826171875	9.706787109375	-6.5193101718798045	0	-19.799805	5.9387207	-31.858826	67.18701	-5.015135	1.6541641
1448091801634	0.271484375	0.8375244140625	9.6925048828125	-6.520034365195942	0	-20.039368	5.8792114	-31.799316	67.19278	-5.012314	1.6519766
1448091801674	0.296478271484375	0.850616455078125	9.6639404296875	-6.518586138069062	0	-19.979858	5.519104	-32.159424	67.187256	-5.0148335	1.6545047
1448091801715	0.26434326171875	0.85418701171875	9.69012451171875	-6.518948135042846	0	-19.859314	5.6396484	-32.159424	67.185	-5.0157447	1.655796
1448091801755	0.272674560546875	0.84942626953125	9.668701171875	-6.521664383895306	0	-19.73877	5.8792114	-32.03888	67.18881	-5.017078	1.6469108
1448091801796	0.281005859375	0.8470458984375	9.6591796875	-6.522207903231939	0	-19.799805	6.1187744	-31.858826	67.1886	-5.015625	1.6505945
1448091801836	0.279815673828125	0.8375244140625	9.672271728515625	-6.521845547014777	0	-19.73877	6.1798096	-31.799316	67.189545	-5.0148854	1.6509116
1448091801876	0.272674560546875	0.861328125	9.69488525390625	-6.515872430076728	0	-19.619751	5.819702	-31.259155	67.19052	-5.015555	1.6478488
1448091801917	0.282196044921875	0.843475341796875	9.748443603515625	-6.5090076979962515	0	-19.918823	5.519104	-31.13861	67.18506	-5.016866	1.65311
1448091801957	0.31195068359375	0.850616455078125	9.691314697265625	-6.512076994170855	0	-19.558716	5.0994873	-31.199646	67.17795	-5.019298	1.658212
1448091801997	0.2191162109375	0.813720703125	9.715118408203125	-6.52819256310848	0	-19.859314	5.1589966	-31.3797	67.207184	-5.006929	1.6426342
1448091802038	0.289337158203125	0.83990478515625	9.74249267578125	-6.509368643370529	0	-19.73877	5.4595947	-31.3797	67.194824	-5.010022	1.6541886
1448091802078	0.29290771484375	0.83990478515625	9.630615234375	-6.525833666599372	0	-19.619751	5.279541	-31.3797	67.19794	-5.006845	1.6569308
1448091802119	0.291717529296875	0.851806640625	9.72821044921875	-6.509368643370529	0	-19.619751	5.3985596	-31.3797	67.19763	-5.0058565	1.6596912
1448091802159	0.291717529296875	0.838714599609375	9.717498779296875	-6.512980272678231	0	-19.499207	5.5786133	-31.619263	67.19946	-5.0055175	1.6576623
1448091802199	0.298858642578125	0.87322998046875	9.7115478515625	-6.507564311407139	0	-19.259644	5.3985596	-31.559753	67.19238	-5.008931	1.6605049
1448091802240	0.28814697265625	0.850616455078125	9.63775634765625	-6.52383900117742	0	-18.899536	5.6991577	-31.559753	67.19476	-5.008467	1.6579363
1448091802280	0.286956787109375	0.848236083984375	9.64251708984375	-6.523657728052852	0	-18.899536	5.6991577	-31.559753	67.20111	-5.00192	1.6635855
1448091802320	0.30242919921875	0.3804931640625	9.453277587890625	-6.622860068540165	0	-19.259644	5.758667	-31.498718	67.05405	-5.0994296	1.6598719
1448091802361	0.4000244140625	1.007720947265625	9.744873046875	-6.467046375905437	0	-19.378662	5.999756	-31.619263	67.21097	-4.9525833	1.7637199
1448091802401	0.014404296875	1.436187744140625	9.878173828125	-6.440776791757976	0	-19.859314	5.8792114	-31.799316	67.09512	-5.0830064	1.6357222
1448091802441	0.34051513671875	0.6566162109375	9.32354736328125	-6.594018684151714	0	-19.67926	5.5786133	-31.799316	67.15979	-5.001044	1.6117798
1448091802482	0.36669921875	0.798248291015625	9.779388427734375	-6.498377525996777	0	-19.558716	5.5786133	-31.739807	67.197174	-4.938014	1.7203504
1448091802522	0.177459716796875	1.143402099609375	9.853179931640625	-6.463840399303761	0	-19.439697	5.6396484	-31.678772	67.09918	-5.0030212	1.6520755
1448091802562	0.398834228515625	0.63519287109375	9.848419189453125	-6.507744700193338	0	-19.1391	5.279541	-31.619263	67.08063	-4.9766507	1.6553341
1448091802602	0.37860107421875	0.90655517578125	9.746063232421875	-6.485272030283387	0	-19.319153	5.6991577	-31.619263	67.04538	-4.9636908	1.675478
1448091802643	0.144134521484375	0.96844482421875	9.784149169921875	-6.505580685360202	0	-19.558716	5.819702	-31.559753	66.9415	-5.0254574	1.6290935
1448091802683	0.319091796875	0.73040771484375	9.44256591796875	-6.567454212961772	0	-19.619751	5.819702	-31.739807	66.9411	-4.982204	1.6404865
1448091802723	0.40240478515625	0.73992919921875	9.7972412109375	-6.4990971360084195	0	-19.67926	6.298828	-31.97937	66.94006	-4.9614506	1.6755416
1448091802763	0.25958251953125	0.867279052734375	9.60919189453125	-6.530008254481972	0	-19.619751	6.5994263	-31.97937	66.75906	-5.001246	1.6383284
1448091802804	0.336944580078125	0.77325439453125	9.717498779296875	-6.516053274316523	0	-19.439697	6.298828	-32.159424	66.68805	-4.9792843	1.6443473
1448091802844	0.31195068359375	0.881561279296875	9.650848388671875	-6.513522358710244	0	-19.439697	6.4193726	-32.27997	66.58115	-4.9824157	1.6727762
1448091802884	0.225067138671875	0.870849609375	9.6591796875	-6.527103630807487	0	-19.319153	5.999756	-32.339478	66.52081	-4.9905167	1.638755
1448091802925	0.29766845703125	0.813720703125	9.67584228515625	-6.522207903231939	0	-19.558716	5.8792114	-32.03888	66.47424	-4.9830875	1.654992
1448091802965	0.275054931640625	0.870849609375	9.744873046875	-6.506482185755996	0	-19.439697	5.8792114	-32.099915	66.44577	-4.982255	1.6491343
1448091803006	0.2476806640625	0.843475341796875	9.674652099609375	-6.525470909965785	0	-19.558716	5.758667	-31.91986	66.40445	-4.9859533	1.6419802
1448091803046	0.305999755859375	0.836334228515625	9.655609130859375	-6.520577614921898	0	-19.619751	5.8792114	-31.799316	66.377014	-4.9800625	1.652536
1448091803087	0.26910400390625	0.870849609375	9.7305908203125	-6.509549130875632	0	-19.558716	5.8792114	-31.678772	66.36499	-4.982956	1.6511309
1448091803127	0.28814697265625	0.82086181640625	9.68060302734375	-6.521845547014777	0	-19.439697	5.5786133	-31.619263	66.32852	-4.9864936	1.6458789
1448091803167	0.310760498046875	0.824432373046875	9.687744140625	-6.516776750687242	0	-19.558716	5.6396484	-31.559753	66.31821	-4.980167	1.6559788
1448091803207	0.2476806640625	0.87322998046875	9.6829833984375	-6.5196722485931105	0	-19.73877	5.819702	-31.559753	66.292206	-4.989998	1.6476989
1448091803248	0.3095703125	0.848236083984375	9.70440673828125	-6.510812820164865	0	-19.67926	5.819702	-31.439209	66.26395	-4.992471	1.6553205
1448091803288	0.2952880859375	0.82562255859375	9.7020263671875	-6.516776750687242	0	-19.67926	5.819702	-31.318665	66.25711	-4.9879117	1.6571214
1448091803328	0.28338623046875	0.87322998046875	9.706787109375	-6.510632263460016	0	-19.73877	5.5786133	-31.3797	66.24539	-4.9920764	1.650743
1448091803369	0.30242919921875	0.85894775390625	9.64251708984375	-6.5196722485931105	0	-19.918823	5.279541	-31.439209	66.25104	-4.9938855	1.6583693
1448091803409	0.267913818359375	0.836334228515625	9.69964599609375	-6.5196722485931105	0	-19.859314	5.1589966	-31.3797	66.29242	-4.9863	1.6564891
1448091803449	0.294097900390625	0.857757568359375	9.67822265625	-6.515691595774808	0	-20.098877	5.3985596	-31.498718	66.31036	-4.9906545	1.6608213
1448091803489	0.2952880859375	0.848236083984375	9.69488525390625	-6.514426033784343	0	-19.799805	5.519104	-31.439209	66.312195	-4.9912963	1.6636497
1448091803530	0.272674560546875	0.852996826171875	9.7353515625	-6.510993386761892	0	-19.499207	5.6991577	-31.3797	66.306366	-4.9956613	1.6589419
1448091803570	0.282196044921875	0.869659423828125	9.67108154296875	-6.516776750687242	0	-19.1391	5.8792114	-31.739807	66.27075	-5.0012255	1.6585224
1448091803611	0.282196044921875	0.83990478515625	9.697265625	-6.517319462393314	0	-19.198608	5.8792114	-31.619263	66.229004	-4.9985375	1.6611071
1448091803651	0.277435302734375	0.85894775390625	9.68060302734375	-6.517681319949613	0	-19.198608	5.999756	-31.739807	66.210205	-4.999066	1.6585426
1448091803691	0.279815673828125	0.8565673828125	9.71630859375	-6.5122576300586745	0	-19.499207	6.239319	-32.03888	66.11743	-5.005976	1.6560606
1448091803731	0.275054931640625	0.867279052734375	9.672271728515625	-6.518043217323042	0	-19.979858	5.999756	-31.619263	66.0611	-5.011232	1.6553249
1448091803772	0.29052734375	0.832763671875	9.686553955078125	-6.51876713157388	0	-19.859314	6.059265	-31.439209	66.0423	-5.0067234	1.6566086
1448091803812	0.275054931640625	0.83990478515625	9.687744140625	-6.519853301907512	0	-19.979858	6.1798096	-31.3797	66.02109	-5.0032463	1.6553035
1448091803852	0.271484375	0.862518310546875	9.697265625	-6.515510771409126	0	-19.979858	6.059265	-31.199646	66.00571	-5.0064235	1.6565913
1448091803893	0.272674560546875	0.84942626953125	9.707977294921875	-6.515691595774808	0	-19.979858	6.239319	-31.079102	65.97336	-5.008283	1.6509932
1448091803933	0.286956787109375	0.848236083984375	9.70916748046875	-6.513522358710244	0	-20.039368	5.758667	-31.199646	65.95398	-5.0057497	1.6553102
1448091803974	0.281005859375	0.852996826171875	9.70440673828125	-6.514426033784343	0	-19.979858	5.519104	-31.199646	65.96118	-5.0042057	1.6560605
1448091804014	0.2762451171875	0.83514404296875	9.66632080078125	-6.523657728052852	0	-20.159912	5.519104	-31.199646	65.98944	-5.001963	1.652983
1448091804054	0.289337158203125	0.841094970703125	9.688934326171875	-6.517319462393314	0	-19.67926	5.279541	-31.619263	66.02249	-5.0029855	1.6586769
1448091804095	0.31671142578125	0.84466552734375	9.681793212890625	-6.513703073885302	0	-19.67926	5.519104	-31.619263	66.036896	-4.999406	1.6660507
1448091804135	0.29766845703125	0.83514404296875	9.6734619140625	-6.5193101718798045	0	-19.67926	5.6396484	-31.498718	66.05884	-4.9895687	1.6639255
1448091804175	0.26910400390625	0.860137939453125	9.67108154296875	-6.520215438460051	0	-19.799805	5.6991577	-31.559753	66.053314	-4.994814	1.6575671
1448091804215	0.281005859375	0.861328125	9.655609130859375	-6.520577614921898	0	-19.979858	5.6991577	-31.439209	66.05032	-4.997602	1.657357
1448091804255	0.267913818359375	0.85894775390625	9.691314697265625	-6.5175003861951435	0	-19.918823	5.5786133	-31.439209	66.05072	-4.997466	1.6600431
1448091804296	0.301239013671875	0.85418701171875	9.7020263671875	-6.511535145922295	0	-19.859314	5.9387207	-31.3797	66.03894	-5.001684	1.6618916
1448091804336	0.27862548828125	0.872039794921875	9.668701171875	-6.517319462393314	0	-19.67926	6.3598633	-31.3797	66.00888	-5.0066004	1.6569391
1448091804376	0.282196044921875	0.850616455078125	9.681793212890625	-6.518043217323042	0	-19.859314	6.3598633	-31.318665	65.95795	-5.0068192	1.6562076
1448091804417	0.282196044921875	0.836334228515625	9.731781005859375	-6.512618931551537	0	-19.918823	6.4193726	-31.3797	65.91672	-5.0028954	1.6617024
1448091804457	0.29290771484375	0.8375244140625	9.688934326171875	-6.517319462393314	0	-20.098877	6.239319	-31.439209	65.90741	-4.998122	1.659413
1448091804497	0.289337158203125	0.852996826171875	9.6544189453125	-6.520758718122936	0	-20.098877	5.758667	-31.079102	65.868286	-4.99482	1.6687784
1448091804537	0.279815673828125	0.845855712890625	9.691314697265625	-6.517681319949613	0	-19.73877	5.758667	-31.079102	65.874115	-4.9940033	1.6703973
1448091804577	0.277435302734375	0.851806640625	9.67822265625	-6.519129148477605	0	-19.799805	5.999756	-30.599976	65.881226	-4.9899697	1.6673093
1448091804618	0.282196044921875	0.841094970703125	9.69012451171875	-6.518224180945287	0	-19.799805	5.999756	-30.479431	65.8746	-4.98621	1.6681806
1448091804658	0.27386474609375	0.838714599609375	9.712738037109375	-6.516414992616296	0	-20.039368	5.9387207	-30.659485	65.87952	-4.983629	1.665926
1448091804698	0.29766845703125	0.84466552734375	9.715118408203125	-6.511535145922295	0	-20.039368	5.9387207	-30.899048	65.86789	-4.9840117	1.6682979
1448091804739	0.289337158203125	0.8470458984375	9.687744140625	-6.516595866679553	0	-19.979858	5.758667	-31.318665	65.86429	-4.9816637	1.6730981
1448091804779	0.28338623046875	0.85894775390625	9.684173583984375	-6.516234128495833	0	-19.859314	5.519104	-31.259155	65.86481	-4.985794	1.672526
1448091804819	0.2952880859375	0.84466552734375	9.679412841796875	-6.517319462393314	0	-19.67926	5.4595947	-31.259155	65.88214	-4.98549	1.674218
1448091804859	0.29052734375	0.864898681640625	9.667510986328125	-6.516776750687242	0	-19.67926	5.6396484	-31.199646	65.888214	-4.9865003	1.6765306
1448091804900	0.282196044921875	0.852996826171875	9.677032470703125	-6.518405154526746	0	-19.73877	5.6396484	-31.259155	65.893036	-4.9877186	1.6775807
1448091804940	0.27862548828125	0.843475341796875	9.700836181640625	-6.516776750687242	0	-19.558716	5.6991577	-31.439209	65.90393	-4.9854946	1.6785585
1448091804980	0.28814697265625	0.838714599609375	9.667510986328125	-6.521120954473496	0	-19.558716	5.9387207	-31.318665	65.891846	-4.986525	1.677534
1448091805020	0.2857666015625	0.83038330078125	9.700836181640625	-6.517681319949613	0	-19.499207	5.8792114	-31.559753	65.87848	-4.9818664	1.6777358
1448091805061	0.294097900390625	0.845855712890625	9.724639892578125	-6.5104517166457185	0	-19.67926	6.1187744	-31.619263	65.86429	-4.9831824	1.6787715
1448091805101	0.29052734375	0.84466552734375	9.67108154296875	-6.5193101718798045	0	-19.859314	6.059265	-31.678772	65.86865	-4.9815464	1.6754518
1448091805141	0.271484375	0.8565673828125	9.691314697265625	-6.517319462393314	0	-19.799805	5.819702	-31.678772	65.86542	-4.984007	1.6751672
1448091805182	0.267913818359375	0.848236083984375	9.710357666015625	-6.516234128495833	0	-19.619751	5.999756	-31.559753	65.86566	-4.986111	1.6702131
1448091805222	0.289337158203125	0.833953857421875	9.657989501953125	-6.523113968724989	0	-19.859314	5.8792114	-31.559753	65.8674	-4.9844575	1.6710399
1448091805262	0.28338623046875	0.860137939453125	9.700836181640625	-6.513522358710244	0	-19.73877	5.758667	-31.259155	65.86792	-4.986046	1.666747
1448091805302	0.2857666015625	0.8470458984375	9.66156005859375	-6.521120954473496	0	-19.979858	5.999756	-31.13861	65.85974	-4.992503	1.6656492
1448091805343	0.2952880859375	0.8470458984375	9.681793212890625	-6.516595866679553	0	-19.918823	5.6396484	-31.259155	65.862274	-4.9902177	1.6666231
1448091805383	0.289337158203125	0.862518310546875	9.660369873046875	-6.518405154526746	0	-20.039368	5.758667	-31.259155	65.85623	-4.9936266	1.6687537
1448091805423	0.270294189453125	0.83990478515625	9.684173583984375	-6.521120954473496	0	-19.859314	5.9387207	-31.3797	65.86258	-4.9912243	1.663928
1448091805464	0.271484375	0.850616455078125	9.687744140625	-6.51876713157388	0	-19.918823	5.6396484	-31.559753	65.864075	-4.9916787	1.6605284
1448091805504	0.27386474609375	0.84228515625	9.68060302734375	-6.520758718122936	0	-19.918823	5.519104	-31.3797	65.86743	-4.989845	1.6592623
1448091805544	0.3048095703125	0.850616455078125	9.69488525390625	-6.512618931551537	0	-19.73877	5.3985596	-31.3797	65.8642	-4.990651	1.6626235
1448091805584	0.289337158203125	0.836334228515625	9.687744140625	-6.518224180945287	0	-19.67926	5.519104	-31.318665	65.86319	-4.991246	1.662926
1448091805625	0.27386474609375	0.851806640625	9.686553955078125	-6.518405154526746	0	-19.499207	5.519104	-31.439209	65.86243	-4.992689	1.6609896
1448091805665	0.29766845703125	0.843475341796875	9.68536376953125	-6.516234128495833	0	-19.67926	5.6396484	-31.3797	65.86209	-4.990514	1.6662445
1448091805705	0.2952880859375	0.833953857421875	9.706787109375	-6.514787573276026	0	-20.098877	5.758667	-31.079102	65.867676	-4.9847374	1.6699957
1448091805745	0.270294189453125	0.8565673828125	9.684173583984375	-6.518586138069062	0	-20.27893	5.6396484	-31.199646	65.870544	-4.983416	1.6683377
1448091805786	0.26434326171875	0.843475341796875	9.66156005859375	-6.524926850201352	0	-20.098877	5.819702	-31.259155	65.87213	-4.983088	1.6665379
1448091805826	0.29052734375	0.84466552734375	9.706787109375	-6.513883798978608	0	-19.979858	5.6991577	-31.498718	65.872284	-4.9841695	1.6639284
1448091805866	0.267913818359375	0.8280029296875	9.7305908203125	-6.516234128495833	0	-19.67926	5.6396484	-31.678772	65.89258	-4.973599	1.6548066
1448091805906	0.27386474609375	0.848236083984375	9.705596923828125	-6.516053274316523	0	-19.259644	5.758667	-31.799316	65.896576	-4.9731846	1.6493577
1448091805947	0.284576416015625	0.836334228515625	9.7401123046875	-6.510993386761892	0	-19.378662	5.6396484	-31.559753	65.89395	-4.973556	1.6527269
1448091805987	0.30718994140625	0.833953857421875	9.665130615234375	-6.5193101718798045	0	-19.499207	5.819702	-31.439209	65.88779	-4.9768333	1.6553718
1448091806027	0.2857666015625	0.8565673828125	9.707977294921875	-6.512618931551537	0	-19.73877	5.9387207	-31.619263	65.882385	-4.976825	1.663976
1448091806067	0.3048095703125	0.860137939453125	9.71868896484375	-6.507564311407139	0	-20.159912	5.9387207	-31.439209	65.87344	-4.979935	1.6713463
1448091806108	0.28814697265625	0.857757568359375	9.665130615234375	-6.518586138069062	0	-20.039368	6.1187744	-31.678772	65.86453	-4.9872065	1.6696078
1448091806148	0.298858642578125	0.862518310546875	9.68536376953125	-6.51316095810834	0	-19.918823	6.239319	-31.678772	65.85889	-4.9904103	1.6715498
1448091806188	0.279815673828125	0.860137939453125	9.677032470703125	-6.517681319949613	0	-19.619751	6.298828	-31.799316	65.857086	-4.992436	1.6700078
1448091806228	0.27862548828125	0.832763671875	9.667510986328125	-6.52347646493703	0	-19.499207	5.999756	-31.858826	65.858215	-4.9903	1.6728857
1448091806269	0.281005859375	0.843475341796875	9.69488525390625	-6.517319462393314	0	-19.558716	6.059265	-31.498718	65.859344	-4.9903445	1.6709908
1448091806309	0.27862548828125	0.862518310546875	9.6829833984375	-6.516595866679553	0	-19.499207	5.6991577	-31.498718	65.859955	-4.990516	1.6696327
1448091806349	0.291717529296875	0.831573486328125	9.697265625	-6.517138548542482	0	-19.67926	5.519104	-31.318665	65.86514	-4.9868736	1.669345
1448091806390	0.279815673828125	0.85418701171875	9.662750244140625	-6.520758718122936	0	-19.619751	5.6396484	-31.199646	65.86545	-4.986178	1.6703881
1448091806430	0.30242919921875	0.8470458984375	9.724639892578125	-6.5090076979962515	0	-19.499207	5.9387207	-31.498718	65.867096	-4.983031	1.6746497
1448091806470	0.27386474609375	0.848236083984375	9.710357666015625	-6.515329956978043	0	-19.73877	6.239319	-31.559753	65.87073	-4.983522	1.6678207
1448091806510	0.29290771484375	0.851806640625	9.715118408203125	-6.5111739632527215	0	-19.859314	6.059265	-31.619263	65.86685	-4.98514	1.6704439
1448091806551	0.2762451171875	0.8280029296875	9.69488525390625	-6.520396521701485	0	-19.73877	6.1187744	-31.799316	65.86554	-4.985074	1.6726879
1448091806591	0.294097900390625	0.845855712890625	9.69488525390625	-6.51496835791313	0	-19.799805	6.059265	-31.799316	65.86484	-4.9848437	1.6742994
1448091806631	0.303619384765625	0.84466552734375	9.684173583984375	-6.515329956978043	0	-19.918823	5.8792114	-31.739807	65.85977	-4.986069	1.6796271
1448091806671	0.277435302734375	0.857757568359375	9.74725341796875	-6.507744700193338	0	-19.799805	6.1798096	-31.439209	65.86133	-4.9859366	1.6774739
1448091806712	0.300048828125	0.84942626953125	9.696075439453125	-6.513341653451801	0	-19.73877	6.298828	-31.019592	65.85217	-4.990967	1.6809719
1448091806752	0.28814697265625	0.857757568359375	9.705596923828125	-6.512438275851692	0	-19.558716	6.1187744	-30.718994	65.84558	-4.9954515	1.6816564
1448091806792	0.270294189453125	0.83514404296875	9.668701171875	-6.524201577459421	0	-19.499207	6.059265	-30.839539	65.85141	-4.9932237	1.6772759
1448091806833	0.275054931640625	0.8565673828125	9.71630859375	-6.512980272678231	0	-19.73877	5.8792114	-30.839539	65.85901	-4.989742	1.672816
1448091806873	0.279815673828125	0.857757568359375	9.687744140625	-6.516414992616296	0	-19.619751	5.4595947	-30.958557	65.85962	-4.9897327	1.6718847
1448091806913	0.28338623046875	0.8470458984375	9.706787109375	-6.514606798566976	0	-19.859314	5.8792114	-31.3797	65.850525	-4.9959836	1.6726347
1448091806953	0.303619384765625	0.836334228515625	9.7115478515625	-6.512438275851692	0	-19.67926	5.6991577	-31.259155	65.85437	-4.993474	1.6720496
1448091806994	0.29766845703125	0.852996826171875	9.736541748046875	-6.507023204219971	0	-19.378662	6.059265	-31.439209	65.851776	-4.993369	1.6764063
1448091807034	0.26910400390625	0.84466552734375	9.706787109375	-6.517138548542482	0	-19.558716	5.999756	-31.619263	65.8472	-4.9983673	1.6727345
1448091807074	0.26434326171875	0.8660888671875	9.70440673828125	-6.51496835791313	0	-19.499207	5.9387207	-31.259155	65.84418	-5.000622	1.6726024
1448091807114	0.28814697265625	0.838714599609375	9.69964599609375	-6.516234128495833	0	-19.67926	6.1798096	-31.199646	65.84375	-4.9999385	1.6747943
1448091807155	0.271484375	0.83514404296875	9.705596923828125	-6.518405154526746	0	-19.859314	5.819702	-31.079102	65.84573	-4.9983697	1.6750318
1448091807195	0.29766845703125	0.845855712890625	9.696075439453125	-6.514245278926494	0	-19.859314	5.8792114	-30.958557	65.85092	-4.9942627	1.6757734
1448091807235	0.270294189453125	0.862518310546875	9.665130615234375	-6.520577614921898	0	-19.619751	5.999756	-31.199646	65.85608	-4.9926353	1.6711596
1448091807276	0.27862548828125	0.855377197265625	9.705596923828125	-6.514245278926494	0	-19.73877	5.3985596	-31.3797	65.849365	-4.99847	1.6690464
1448091807316	0.284576416015625	0.848236083984375	9.6829833984375	-6.517862263658365	0	-19.799805	5.3390503	-31.619263	65.85327	-4.996473	1.6672258
1448091807356	0.271484375	0.838714599609375	9.705596923828125	-6.517862263658365	0	-19.73877	5.218506	-31.498718	65.85474	-4.99522	1.6676298
1448091807396	0.28814697265625	0.864898681640625	9.707977294921875	-6.510993386761892	0	-19.499207	5.218506	-31.559753	65.8512	-4.997412	1.668455
1448091807437	0.26910400390625	0.845855712890625	9.70440673828125	-6.517319462393314	0	-19.439697	5.3985596	-31.318665	65.85657	-4.9945354	1.6662498
1448091807477	0.2857666015625	0.855377197265625	9.6591796875	-6.520215438460051	0	-19.439697	5.6396484	-31.559753	65.852905	-4.995594	1.6697264
1448091807517	0.2857666015625	0.85894775390625	9.6734619140625	-6.5175003861951435	0	-19.439697	5.6991577	-31.91986	65.84784	-4.9974303	1.6737753
1448091807557	0.282196044921875	0.8470458984375	9.710357666015625	-6.514245278926494	0	-19.73877	5.5786133	-31.91986	65.84531	-4.9994593	1.6733505
1448091807598	0.291717529296875	0.8470458984375	9.706787109375	-6.513341653451801	0	-19.859314	5.6396484	-31.97937	65.84503	-4.9997888	1.6730671
1448091807638	0.284576416015625	0.83038330078125	9.6829833984375	-6.520577614921898	0	-19.619751	5.519104	-31.619263	65.849365	-4.99456	1.677592
1448091807678	0.282196044921875	0.829193115234375	9.69012451171875	-6.520034365195942	0	-19.619751	5.4595947	-31.439209	65.857666	-4.9878526	1.6791053
1448091807719	0.29052734375	0.8375244140625	9.684173583984375	-6.518405154526746	0	-19.499207	5.6396484	-31.3797	65.862366	-4.98382	1.680444
1448091807759	0.30242919921875	0.84942626953125	9.665130615234375	-6.517681319949613	0	-19.439697	5.8792114	-31.13861	65.85797	-4.98593	1.6828144
1448091807799	0.277435302734375	0.8565673828125	9.686553955078125	-6.517138548542482	0	-19.499207	6.4193726	-31.259155	65.85974	-4.9847307	1.682595
1448091807839	0.291717529296875	0.841094970703125	9.686553955078125	-6.517319462393314	0	-19.558716	6.6589355	-31.259155	65.864105	-4.982562	1.6804129
1448091807879	0.281005859375	0.8375244140625	9.68536376953125	-6.5196722485931105	0	-19.439697	6.5994263	-31.259155	65.87552	-4.9761477	1.6763537
1448091807920	0.294097900390625	0.8470458984375	9.668701171875	-6.51876713157388	0	-19.439697	6.298828	-31.498718	65.872894	-4.97805	1.6763316
1448091807960	0.281005859375	0.857757568359375	9.693695068359375	-6.515329956978043	0	-19.499207	5.819702	-31.678772	65.86743	-4.983388	1.6733422
1448091808000	0.28338623046875	0.843475341796875	9.7115478515625	-6.514426033784343	0	-19.619751	5.819702	-31.559753	65.86633	-4.9824567	1.6771204
1448091808040	0.2667236328125	0.848236083984375	9.705596923828125	-6.517138548542482	0	-19.73877	5.6991577	-31.678772	65.87225	-4.981306	1.6702622
1448091808081	0.284576416015625	0.8470458984375	9.693695068359375	-6.516414992616296	0	-19.73877	5.758667	-31.498718	65.87341	-4.980577	1.670027
1448091808121	0.279815673828125	0.84228515625	9.705596923828125	-6.516053274316523	0	-19.799805	5.8792114	-31.498718	65.877045	-4.979917	1.6656713
1448091808161	0.29052734375	0.8470458984375	9.688934326171875	-6.516234128495833	0	-19.73877	5.9387207	-31.498718	65.875824	-4.981024	1.6651869
1448091808201	0.2762451171875	0.8470458984375	9.662750244140625	-6.522389096332937	0	-19.67926	5.819702	-31.259155	65.873474	-4.982368	1.6659944
1448091808242	0.27862548828125	0.841094970703125	9.71868896484375	-6.514426033784343	0	-19.67926	5.819702	-31.259155	65.875305	-4.9822907	1.6632663
1448091808282	0.286956787109375	0.848236083984375	9.665130615234375	-6.520215438460051	0	-19.439697	5.819702	-31.498718	65.8696	-4.9857645	1.6647309
1448091808322	0.282196044921875	0.84942626953125	9.686553955078125	-6.5175003861951435	0	-19.499207	5.819702	-31.498718	65.87079	-4.9849896	1.6645222
1448091808362	0.284576416015625	0.83990478515625	9.715118408203125	-6.514245278926494	0	-19.439697	5.758667	-31.678772	65.86908	-4.985076	1.6670656
1448091808403	0.29052734375	0.850616455078125	9.71630859375	-6.511535145922295	0	-19.378662	5.6991577	-31.97937	65.87192	-4.9825277	1.6681333
1448091808443	0.2857666015625	0.850616455078125	9.68536376953125	-6.516957644641005	0	-19.439697	5.758667	-31.858826	65.8703	-4.9824014	1.6709619
1448091808483	0.25958251953125	0.84466552734375	9.698455810546875	-6.519853301907512	0	-19.499207	5.519104	-31.678772	65.87268	-4.9819903	1.6680766
1448091808523	0.32147216796875	0.832763671875	9.731781005859375	-6.507203563422072	0	-19.73877	5.519104	-31.439209	65.87158	-4.98204	1.669722
1448091808564	0.289337158203125	0.857757568359375	9.703216552734375	-6.512618931551537	0	-19.859314	5.6396484	-31.678772	65.86786	-4.9820533	1.6756157
1448091808604	0.281005859375	0.838714599609375	9.70440673828125	-6.516595866679553	0	-20.458984	5.4595947	-31.619263	65.86105	-4.9875517	1.6743731
1448091808644	0.29052734375	0.85418701171875	9.72344970703125	-6.509910135529882	0	-20.219421	5.519104	-31.858826	65.85986	-4.987607	1.6761197
1448091808684	0.291717529296875	0.836334228515625	9.67108154296875	-6.520396521701485	0	-20.098877	5.6991577	-31.97937	65.85913	-4.9869266	1.6788085
1448091808725	0.29766845703125	0.8470458984375	9.669891357421875	-6.518043217323042	0	-19.918823	5.999756	-31.678772	65.85785	-4.9879804	1.6785557
1448091808765	0.29052734375	0.829193115234375	9.667510986328125	-6.519853301907512	0	-19.619751	5.819702	-31.799316	65.85303	-4.990003	1.6817293
1448091808806	0.279815673828125	0.855377197265625	9.7401123046875	-6.508827240123836	0	-19.859314	6.239319	-31.678772	65.858734	-4.9863267	1.6807073
1448091808846	0.2952880859375	0.8565673828125	9.725830078125	-6.508466354000341	0	-19.799805	6.1187744	-31.678772	65.85611	-4.9865656	1.6843723
1448091808886	0.301239013671875	0.829193115234375	9.68060302734375	-6.518586138069062	0	-19.799805	6.059265	-31.858826	65.85748	-4.983498	1.6888844
1448091808926	0.279815673828125	0.83990478515625	9.712738037109375	-6.515329956978043	0	-19.859314	6.059265	-31.619263	65.85986	-4.9813576	1.6897722
1448091808967	0.284576416015625	0.832763671875	9.691314697265625	-6.518948135042846	0	-19.799805	5.819702	-31.678772	65.862274	-4.979205	1.6906805
1448091809007	0.300048828125	0.831573486328125	9.69012451171875	-6.516957644641005	0	-19.979858	5.819702	-31.559753	65.859375	-4.9790382	1.6956074
1448091809047	0.277435302734375	0.841094970703125	9.715118408203125	-6.515149152479924	0	-19.799805	6.1187744	-31.439209	65.85495	-4.981034	1.6982926
1448091809088	0.281005859375	0.857757568359375	9.700836181640625	-6.514245278926494	0	-19.859314	6.3598633	-31.3797	65.85474	-4.9820595	1.6963584
1448091809128	0.279815673828125	0.848236083984375	9.7020263671875	-6.515691595774808	0	-19.439697	6.239319	-31.3797	65.854645	-4.982859	1.6947951
1448091809168	0.277435302734375	0.83990478515625	9.677032470703125	-6.521120954473496	0	-19.439697	5.5786133	-31.498718	65.857086	-4.981988	1.6928072
1448091809208	0.279815673828125	0.8375244140625	9.669891357421875	-6.522207903231939	0	-19.558716	5.3985596	-31.498718	65.856476	-4.981097	1.6957355
1448091809249	0.30242919921875	0.83990478515625	9.79010009765625	-6.500176844680758	0	-19.918823	5.519104	-31.318665	65.85135	-4.9804535	1.7052338
1448091809289	0.28338623046875	0.83514404296875	9.686553955078125	-6.519491205251091	0	-19.918823	5.4595947	-31.3797	65.86188	-4.974463	1.7016221
1448091809329	0.281005859375	0.855377197265625	9.672271728515625	-6.518948135042846	0	-19.918823	5.3390503	-31.619263	65.85956	-4.97625	1.701416
1448091809370	0.31195068359375	0.883941650390625	9.76629638671875	-6.495680381419215	0	-20.159912	5.758667	-31.318665	65.83884	-4.992996	1.6977221
1448091809410	0.25006103515625	0.832763671875	9.63775634765625	-6.532370158543005	0	-19.979858	5.519104	-31.678772	65.85092	-4.9933405	1.6777939
1448091809450	0.2762451171875	0.84942626953125	9.78533935546875	-6.503418088238629	0	-20.039368	5.8792114	-31.498718	65.85193	-4.993625	1.6755902
1448091809490	0.308380126953125	0.85894775390625	9.691314697265625	-6.51135454963898	0	-19.73877	5.999756	-31.498718	65.84711	-4.997641	1.6744736
1448091809531	0.2952880859375	0.812530517578125	9.68536376953125	-6.521302087626317	0	-19.619751	5.8792114	-31.559753	65.84769	-4.993838	1.6818646
1448091809571	0.260772705078125	0.88751220703125	9.536590576171875	-6.537827219845152	0	-19.67926	5.8792114	-31.498718	65.8208	-5.0114603	1.6860213
1448091809611	0.31195068359375	0.850616455078125	9.94482421875	-6.473824676426285	0	-19.73877	5.519104	-31.498718	65.7952	-5.035785	1.6735606
1448091809651	0.322662353515625	0.781585693359375	9.396148681640625	-6.566168434835318	0	-19.979858	5.5786133	-31.3797	65.82037	-5.008911	1.692231
1448091809692	0.204833984375	0.92559814453125	9.893646240234375	-6.486347243184545	0	-19.918823	5.5786133	-31.498718	65.79727	-5.0353155	1.6712899
1448091809732	0.32147216796875	0.852996826171875	9.60205078125	-6.52383900117742	0	-19.918823	5.5786133	-31.3797	65.76221	-5.06196	1.6688246
1448091809772	0.286956787109375	0.838714599609375	9.748443603515625	-6.5090076979962515	0	-19.918823	5.9387207	-31.498718	65.75769	-5.058619	1.6832619
1448091809812	0.294097900390625	0.872039794921875	9.59490966796875	-6.526196463347649	0	-19.619751	5.758667	-31.439209	65.731476	-5.07734	1.6840278
1448091809853	0.25244140625	0.879180908203125	9.836517333984375	-6.494781821349864	0	-19.67926	5.8792114	-31.318665	65.72244	-5.0894966	1.6719289
1448091809893	0.346466064453125	0.864898681640625	9.546112060546875	-6.52674073371423	0	-19.918823	5.8792114	-31.678772	65.73291	-5.0837293	1.6679076
1448091809933	0.3048095703125	0.8470458984375	9.9114990234375	-6.480437873436188	0	-19.799805	5.6991577	-31.799316	65.6983	-5.09473	1.6987096
1448091809974	0.29290771484375	0.829193115234375	9.56634521484375	-6.537281103819653	0	-20.219421	5.9387207	-32.159424	65.6864	-5.1097445	1.6849612
1448091810014	0.3048095703125	0.85894775390625	9.891265869140625	-6.481690498470766	0	-19.918823	5.9387207	-31.739807	65.68985	-5.1071267	1.6851524
1448091810057	0.286956787109375	0.89703369140625	9.58062744140625	-6.525652283269074	0	-20.159912	5.6991577	-31.559753	65.67792	-5.1152487	1.686428
1448091810097	0.2572021484375	0.872039794921875	9.75201416015625	-6.507925098844139	0	-19.799805	4.978943	-31.259155	65.69882	-5.107328	1.6705531
1448091810138	0.305999755859375	0.898223876953125	9.75201416015625	-6.496579185417597	0	-19.439697	4.8599243	-31.318665	65.68964	-5.109871	1.6795882
1448091810178	0.267913818359375	0.824432373046875	9.508026123046875	-6.550778703544507	0	-19.439697	4.6798706	-31.439209	65.727264	-5.081379	1.6819345
1448091810218	0.267913818359375	0.952972412109375	9.88055419921875	-6.474717584654659	0	-19.1391	4.798889	-31.498718	65.74072	-5.084312	1.6542966
1448091810258	0.367889404296875	0.79705810546875	9.48541259765625	-6.543111052964653	0	-19.259644	5.039978	-31.739807	65.757324	-5.062726	1.6749198
1448091810299	0.305999755859375	0.83990478515625	9.855560302734375	-6.489754383491748	0	-19.198608	5.039978	-31.559753	65.817566	-5.014157	1.6852732
1448091810339	0.253631591796875	0.92559814453125	9.38543701171875	-6.5562666712401825	0	-19.319153	5.218506	-31.619263	65.81534	-5.030491	1.6531903
1448091810379	0.36431884765625	0.737548828125	9.967437744140625	-6.479543430008759	0	-19.319153	5.279541	-31.678772	65.84363	-4.994332	1.6872082
1448091810419	0.29052734375	0.870849609375	9.43304443359375	-6.551692722254787	0	-19.378662	5.5786133	-31.318665	65.8689	-4.983153	1.6715255
1448091810460	0.20721435546875	0.886322021484375	9.798431396484375	-6.5063018659767256	0	-19.439697	5.5786133	-31.199646	65.83484	-4.996626	1.6961174
1448091810500	0.370269775390625	0.748260498046875	9.667510986328125	-6.522389096332937	0	-20.159912	5.819702	-31.439209	65.87549	-4.973354	1.675866
1448091810540	0.281005859375	0.867279052734375	9.8353271484375	-6.492446705333792	0	-20.518494	5.8792114	-31.318665	65.8721	-4.982843	1.6971477
1448091810580	0.210784912109375	0.82562255859375	9.431854248046875	-6.571130680295361	0	-20.698547	6.059265	-31.439209	65.877075	-5.0008445	1.6477681
1448091810620	0.370269775390625	0.80419921875	9.976959228515625	-6.467224575963904	0	-20.698547	6.239319	-31.259155	65.89484	-5.007214	1.7053126
1448091810661	0.27862548828125	0.922027587890625	9.56396484375	-6.525652283269074	0	-20.518494	6.1798096	-31.259155	65.86301	-5.0490584	1.6866641
1448091810701	0.289337158203125	0.924407958984375	9.822235107421875	-6.484555415017827	0	-20.039368	6.239319	-31.498718	65.839386	-5.069956	1.7004565
1448091810741	0.32147216796875	0.84942626953125	9.724639892578125	-6.505760965742478	0	-20.159912	6.298828	-31.498718	65.81174	-5.0663295	1.7025553
1448091810782	0.3143310546875	0.910125732421875	9.8258056640625	-6.482406496129944	0	-19.979858	5.9387207	-31.619263	65.76456	-5.0964265	1.7056879
1448091810822	0.2333984375	0.814910888671875	9.49493408203125	-6.559563904080657	0	-20.27893	6.059265	-31.619263	65.753235	-5.0999966	1.7051113
1448091810862	0.2762451171875	0.917266845703125	9.905548095703125	-6.475074814954304	0	-20.458984	5.9387207	-31.439209	65.753204	-5.1009736	1.7037858
1448091810902	0.3428955078125	0.84228515625	9.59967041015625	-6.522570299431086	0	-19.979858	5.6991577	-31.439209	65.69205	-5.1360807	1.7154129
1448091810943	0.360748291015625	0.824432373046875	9.743682861328125	-6.500716831255129	0	-19.67926	5.999756	-31.799316	65.68616	-5.1279902	1.7372779
1448091810983	0.265533447265625	0.93511962890625	9.67584228515625	-6.508646792125739	0	-19.67926	6.3598633	-31.678772	65.62198	-5.1524587	1.7358952
1448091811023	0.291717529296875	0.872039794921875	9.731781005859375	-6.505760965742478	0	-19.378662	6.1187744	-31.678772	65.569214	-5.1644697	1.7254966
1448091811064	0.277435302734375	0.814910888671875	9.817474365234375	-6.503598250584686	0	-19.619751	6.4193726	-31.799316	65.56848	-5.153622	1.7188346
1448091811104	0.289337158203125	0.90655517578125	9.76153564453125	-6.496399405094062	0	-19.859314	5.999756	-31.799316	65.49335	-5.161434	1.7219114
1448091811144	0.261962890625	0.83514404296875	9.62823486328125	-6.5316432374037365	0	-19.799805	5.758667	-31.91986	65.50104	-5.159	1.6957837
1448091811184	0.319091796875	0.85894775390625	9.781768798828125	-6.49603987373596	0	-19.799805	5.999756	-31.97937	65.47986	-5.1544952	1.7257789
1448091811225	0.294097900390625	0.895843505859375	9.634185791015625	-6.516595866679553	0	-19.73877	5.6991577	-31.91986	65.464935	-5.1692243	1.7066267
1448091811265	0.34051513671875	0.861328125	9.815093994140625	-6.487422804389712	0	-19.619751	6.239319	-31.97937	65.42569	-5.1654754	1.7429042
1448091811305	0.27862548828125	0.905364990234375	9.611572265625	-6.5209398313062525	0	-19.859314	6.1798096	-31.97937	65.391785	-5.176778	1.7177709
1448091811345	0.281005859375	0.8851318359375	9.819854736328125	-6.492087602732397	0	-19.67926	5.5786133	-31.678772	65.346436	-5.1866465	1.7338841
1448091811385	0.2857666015625	0.8851318359375	9.57586669921875	-6.528374086991754	0	-19.918823	5.6991577	-31.739807	65.36157	-5.1880646	1.7163368
1448091811426	0.310760498046875	0.862518310546875	9.73773193359375	-6.503418088238629	0	-19.979858	5.5786133	-31.619263	65.368774	-5.183318	1.7406265
1448091811466	0.281005859375	0.879180908203125	9.791290283203125	-6.498917218828357	0	-20.039368	5.5786133	-31.619263	65.39398	-5.1818247	1.7258164
1448091811506	0.298858642578125	0.843475341796875	9.7305908203125	-6.509188165744609	0	-19.67926	5.6991577	-31.678772	65.4209	-5.178929	1.7345561
1448091811547	0.2572021484375	0.92559814453125	9.753204345703125	-6.4996369462795816	0	-19.558716	5.5786133	-31.739807	65.429504	-5.190348	1.7048146
1448091811587	0.29052734375	0.8470458984375	9.61395263671875	-6.527648051753998	0	-19.1391	5.519104	-31.91986	65.4389	-5.17907	1.714605
1448091811627	0.286956787109375	0.889892578125	9.706787109375	-6.507564311407139	0	-19.018555	5.519104	-31.858826	65.441956	-5.17528	1.7146713
1448091811667	0.301239013671875	0.883941650390625	9.698455810546875	-6.507564311407139	0	-19.07959	5.6991577	-31.799316	65.41528	-5.185226	1.7160534
1448091811708	0.301239013671875	0.857757568359375	9.688934326171875	-6.512980272678231	0	-18.959045	5.5786133	-31.439209	65.40625	-5.177094	1.7136754
1448091811749	0.28338623046875	0.89703369140625	9.64727783203125	-6.516053274316523	0	-19.259644	5.758667	-31.678772	65.38367	-5.187353	1.71747
1448091811789	0.2952880859375	0.883941650390625	9.75677490234375	-6.4996369462795816	0	-19.319153	5.758667	-31.739807	65.37039	-5.1886272	1.7150801
1448091811829	0.282196044921875	0.893463134765625	9.60443115234375	-6.523295211828294	0	-19.67926	5.758667	-31.678772	65.35071	-5.187581	1.7210068
1448091811869	0.298858642578125	0.869659423828125	9.715118408203125	-6.507564311407139	0	-19.558716	5.4595947	-31.91986	65.36047	-5.189432	1.7173895
1448091811910	0.2952880859375	0.91131591796875	9.677032470703125	-6.507564311407139	0	-19.619751	5.279541	-31.559753	65.36084	-5.1981373	1.720655
1448091811950	0.2952880859375	0.891082763671875	9.72344970703125	-6.503598250584686	0	-19.73877	5.1589966	-31.858826	65.394165	-5.199166	1.7155545
1448091811990	0.29052734375	0.87799072265625	9.684173583984375	-6.5122576300586745	0	-19.979858	5.3390503	-31.619263	65.43829	-5.194693	1.7145264
1448091812030	0.301239013671875	0.848236083984375	9.66156005859375	-6.518586138069062	0	-20.458984	5.4595947	-31.498718	65.48712	-5.1819525	1.7187148
1448091812071	0.281005859375	0.907745361328125	9.707977294921875	-6.505580685360202	0	-20.518494	5.6396484	-31.3797	65.52042	-5.1901255	1.7175171
1448091812111	0.286956787109375	0.86846923828125	9.69012451171875	-6.513341653451801	0	-20.698547	5.999756	-31.079102	65.54672	-5.193966	1.713558
1448091812151	0.29290771484375	0.86370849609375	9.6639404296875	-6.517138548542482	0	-20.518494	5.758667	-31.318665	65.582184	-5.182321	1.7143576
1448091812192	0.270294189453125	0.91845703125	9.736541748046875	-6.501256906045909	0	-20.819092	6.059265	-31.439209	65.5831	-5.1944733	1.7074269
1448091812232	0.2952880859375	0.848236083984375	9.6591796875	-6.519853301907512	0	-20.878601	6.059265	-31.559753	65.59741	-5.1887183	1.7106707
1448091812272	0.284576416015625	0.88037109375	9.706787109375	-6.509368643370529	0	-20.458984	5.4595947	-31.678772	65.62515	-5.1822815	1.7062576
1448091812312	0.303619384765625	0.8946533203125	9.724639892578125	-6.501617004936901	0	-20.458984	5.4595947	-31.619263	65.651764	-5.1886487	1.7097007
1448091812353	0.29052734375	0.85418701171875	9.6544189453125	-6.520396521701485	0	-20.159912	5.519104	-31.619263	65.69501	-5.182282	1.7081982
1448091812393	0.3143310546875	0.886322021484375	9.76629638671875	-6.494961513858943	0	-20.339966	5.819702	-31.619263	65.70145	-5.185439	1.7146451
1448091812433	0.26434326171875	0.898223876953125	9.67822265625	-6.51135454963898	0	-20.458984	5.758667	-31.97937	65.70822	-5.188471	1.7112303
1448091812473	0.305999755859375	0.8994140625	9.71392822265625	-6.502157226851155	0	-20.219421	6.1187744	-31.91986	65.707275	-5.1955123	1.7111363
1448091812514	0.28338623046875	0.879180908203125	9.622283935546875	-6.522570299431086	0	-20.219421	6.1798096	-31.858826	65.69763	-5.1924725	1.7129729
1448091812554	0.294097900390625	0.893463134765625	9.73297119140625	-6.50197714306723	0	-20.098877	6.1798096	-31.739807	65.670166	-5.1956334	1.7138613
1448091812594	0.2762451171875	0.898223876953125	9.71392822265625	-6.506842854876002	0	-20.098877	6.239319	-31.799316	65.646576	-5.196642	1.7132142
1448091812634	0.284576416015625	0.87799072265625	9.6258544921875	-6.522026720126437	0	-20.159912	5.8792114	-31.559753	65.633606	-5.1912317	1.707882
1448091812675	0.300048828125	0.8660888671875	9.703216552734375	-6.5097296282615424	0	-20.159912	5.6991577	-31.619263	65.6427	-5.1842003	1.7145746
1448091812715	0.291717529296875	0.8565673828125	9.69012451171875	-6.514426033784343	0	-20.098877	5.4595947	-31.439209	65.67633	-5.1793566	1.7095457
1448091812755	0.2857666015625	0.86846923828125	9.707977294921875	-6.510812820164865	0	-19.859314	5.3390503	-31.318665	65.704865	-5.1764126	1.7094322
1448091812795	0.29052734375	0.886322021484375	9.712738037109375	-6.506662515388548	0	-19.859314	5.519104	-31.13861	65.733246	-5.1737514	1.7040714
1448091812835	0.298858642578125	0.864898681640625	9.63775634765625	-6.520034365195942	0	-19.73877	5.5786133	-31.619263	65.739624	-5.1703157	1.7082102
1448091812876	0.279815673828125	0.8756103515625	9.781768798828125	-6.499456999732435	0	-19.918823	5.8792114	-31.559753	65.74014	-5.169089	1.7003673
1448091812917	0.30718994140625	0.879180908203125	9.69012451171875	-6.508646792125739	0	-20.098877	5.9387207	-31.3797	65.73471	-5.168053	1.7033532
1448091812957	0.281005859375	0.872039794921875	9.700836181640625	-6.512076994170855	0	-20.098877	5.9387207	-31.498718	65.73981	-5.1624517	1.7026367
1448091812997	0.29290771484375	0.889892578125	9.674652099609375	-6.511535145922295	0	-19.979858	5.8792114	-31.439209	65.73187	-5.164856	1.7041893
1448091813038	0.2857666015625	0.84942626953125	9.706787109375	-6.513883798978608	0	-19.799805	5.819702	-31.3797	65.73059	-5.161365	1.7024825
1448091813078	0.30718994140625	0.889892578125	9.698455810546875	-6.505760965742478	0	-19.799805	5.758667	-31.318665	65.72165	-5.160899	1.7079271
1448091813118	0.2857666015625	0.88037109375	9.6925048828125	-6.51135454963898	0	-19.619751	6.059265	-31.199646	65.715515	-5.1639323	1.7091995
1448091813159	0.281005859375	0.855377197265625	9.698455810546875	-6.51496835791313	0	-19.619751	6.3598633	-31.498718	65.72687	-5.1565447	1.7069604
1448091813199	0.286956787109375	0.88037109375	9.67822265625	-6.513341653451801	0	-19.499207	6.298828	-31.619263	65.72299	-5.159612	1.7065599
1448091813239	0.29290771484375	0.891082763671875	9.7305908203125	-6.50287766014937	0	-19.799805	6.239319	-31.799316	65.71597	-5.165057	1.7060249
1448091813280	0.29290771484375	0.893463134765625	9.707977294921875	-6.505941255971582	0	-20.27893	5.819702	-31.739807	65.71738	-5.163382	1.7073966
1448091813320	0.28814697265625	0.869659423828125	9.64013671875	-6.520577614921898	0	-19.979858	5.4595947	-31.619263	65.715546	-5.164778	1.7073102
1448091813360	0.27862548828125	0.86370849609375	9.69488525390625	-6.514606798566976	0	-19.979858	5.4595947	-31.619263	65.71875	-5.1636195	1.7046509
1448091813401	0.300048828125	0.867279052734375	9.696075439453125	-6.510632263460016	0	-19.67926	5.6991577	-31.498718	65.71237	-5.1681066	1.705206
1448091813441	0.294097900390625	0.862518310546875	9.669891357421875	-6.516234128495833	0	-19.558716	5.9387207	-31.858826	65.718414	-5.16198	1.708771
1448091813481	0.29766845703125	0.86846923828125	9.72821044921875	-6.505941255971582	0	-19.918823	6.1187744	-31.739807	65.72266	-5.158197	1.7101797
1448091813521	0.270294189453125	0.893463134765625	9.655609130859375	-6.517319462393314	0	-20.039368	5.999756	-31.498718	65.716705	-5.163357	1.7085444
1448091813562	0.294097900390625	0.841094970703125	9.743682861328125	-6.508285925746021	0	-20.159912	5.8792114	-31.498718	65.7305	-5.154026	1.706573
1448091813602	0.281005859375	0.87322998046875	9.70440673828125	-6.51135454963898	0	-20.219421	5.758667	-31.199646	65.73413	-5.1523175	1.7056134
1448091813642	0.29766845703125	0.862518310546875	9.70440673828125	-6.5104517166457185	0	-19.918823	5.3985596	-31.439209	65.73898	-5.148169	1.7056097
1448091813682	0.296478271484375	0.86370849609375	9.665130615234375	-6.516414992616296	0	-20.039368	5.5786133	-31.91986	65.74371	-5.143418	1.7083114
1448091813723	0.30242919921875	0.8851318359375	9.67822265625	-6.5102711797203465	0	-19.73877	5.758667	-31.858826	65.737915	-5.145702	1.7126851
1448091813763	0.28338623046875	0.876800537109375	9.7210693359375	-6.507925098844139	0	-19.619751	5.758667	-31.799316	65.73996	-5.1466327	1.7073808
1448091813804	0.2857666015625	0.85894775390625	9.703216552734375	-6.513703073885302	0	-19.979858	6.059265	-31.91986	65.7442	-5.1440477	1.7061481
1448091813844	0.2667236328125	0.867279052734375	9.70440673828125	-6.514426033784343	0	-19.859314	6.1187744	-31.498718	65.75238	-5.1424212	1.6965601
1448091813885	0.279815673828125	0.886322021484375	9.69964599609375	-6.5102711797203465	0	-20.098877	6.1187744	-31.439209	65.74951	-5.1465716	1.6921815
1448091813925	0.296478271484375	0.861328125	9.677032470703125	-6.51496835791313	0	-20.399475	5.758667	-31.619263	65.75531	-5.138939	1.6994054
1448091813965	0.286956787109375	0.8756103515625	9.727020263671875	-6.506662515388548	0	-20.458984	5.4595947	-31.439209	65.7493	-5.143166	1.6998914
1448091814006	0.303619384765625	0.88037109375	9.649658203125	-6.515149152479924	0	-20.339966	5.218506	-31.619263	65.744934	-5.147158	1.6982424
1448091814046	0.28338623046875	0.861328125	9.715118408203125	-6.5111739632527215	0	-20.098877	4.978943	-31.559753	65.747986	-5.1445613	1.6989536
1448091814086	0.298858642578125	0.879180908203125	9.74249267578125	-6.50197714306723	0	-20.219421	5.218506	-31.498718	65.74588	-5.1474085	1.6961775
1448091814126	0.29766845703125	0.851806640625	9.70440673828125	-6.512076994170855	0	-20.458984	5.519104	-31.318665	65.74933	-5.1441903	1.6976111
1448091814167	0.298858642578125	0.88751220703125	9.6734619140625	-6.5111739632527215	0	-20.399475	5.4595947	-31.439209	65.744385	-5.144533	1.7048041
1448091814207	0.2857666015625	0.874420166015625	9.7591552734375	-6.497118584985236	0	-20.399475	5.5786133	-31.559753	65.73584	-5.151022	1.7044668
1448091814247	0.31195068359375	0.88275146484375	9.693695068359375	-6.506842854876002	0	-20.219421	5.8792114	-31.199646	65.72897	-5.1531363	1.7109735
1448091814288	0.30242919921875	0.886322021484375	9.703216552734375	-6.5063018659767256	0	-20.098877	5.9387207	-31.259155	65.72476	-5.154678	1.7143773
1448091814328	0.26434326171875	0.87799072265625	9.660369873046875	-6.519853301907512	0	-20.159912	5.9387207	-30.958557	65.72513	-5.156588	1.7096388
1448091814368	0.29290771484375	0.8756103515625	9.684173583984375	-6.5122576300586745	0	-20.27893	6.1187744	-30.899048	65.71915	-5.1605096	1.710794
1448091814408	0.305999755859375	0.870849609375	9.719879150390625	-6.505580685360202	0	-19.799805	5.999756	-31.13861	65.72531	-5.155577	1.7115674
1448091814449	0.3095703125	0.8756103515625	9.70916748046875	-6.505941255971582	0	-19.73877	5.8792114	-31.318665	65.72827	-5.1529264	1.7125347
1448091814489	0.289337158203125	0.867279052734375	9.684173583984375	-6.514064533991793	0	-19.859314	6.059265	-31.199646	65.73898	-5.1457963	1.7107917
1448091814529	0.281005859375	0.87322998046875	9.6734619140625	-6.516053274316523	0	-19.73877	5.8792114	-31.439209	65.74048	-5.146353	1.7071358
1448091814569	0.28814697265625	0.86846923828125	9.67822265625	-6.51496835791313	0	-19.979858	5.819702	-31.439209	65.74225	-5.144859	1.7075676
1448091814610	0.29052734375	0.87322998046875	9.70440673828125	-6.509910135529882	0	-19.918823	5.8792114	-31.3797	65.740906	-5.1445036	1.7138392
1448091814651	0.300048828125	0.8565673828125	9.706787109375	-6.510632263460016	0	-19.73877	5.758667	-31.3797	65.74194	-5.1428585	1.7124045
1448091814691	0.29766845703125	0.8756103515625	9.705596923828125	-6.508285925746021	0	-19.67926	6.1187744	-31.318665	65.73749	-5.146426	1.7117943
1448091814731	0.272674560546875	0.87799072265625	9.686553955078125	-6.514606798566976	0	-19.979858	6.239319	-31.3797	65.73361	-5.149783	1.7107713
1448091814771	0.29290771484375	0.864898681640625	9.6258544921875	-6.522751512528041	0	-19.799805	6.1187744	-31.318665	65.73364	-5.149601	1.7110882
1448091814812	0.294097900390625	0.900604248046875	9.73297119140625	-6.500896846381431	0	-19.918823	6.239319	-31.439209	65.72824	-5.156077	1.7057625
1448091814852	0.29290771484375	0.886322021484375	9.68060302734375	-6.5111739632527215	0	-19.918823	6.3598633	-31.559753	65.73053	-5.1549425	1.7045528
1448091814892	0.296478271484375	0.879180908203125	9.61871337890625	-6.521120954473496	0	-19.799805	6.298828	-31.439209	65.72922	-5.1523848	1.7121909
1448091814932	0.28814697265625	0.87799072265625	9.77105712890625	-6.499456999732435	0	-19.859314	6.478882	-31.559753	65.72757	-5.155354	1.7084013
1448091814973	0.275054931640625	0.88275146484375	9.6591796875	-6.517681319949613	0	-19.979858	6.239319	-31.559753	65.73044	-5.1535683	1.7076458
1448091815013	0.279815673828125	0.852996826171875	9.6829833984375	-6.517862263658365	0	-20.219421	5.999756	-31.498718	65.73566	-5.151349	1.704077
1448091815053	0.301239013671875	0.8756103515625	9.6829833984375	-6.5111739632527215	0	-20.159912	5.8792114	-31.739807	65.731995	-5.152775	1.7068805
1448091815093	0.284576416015625	0.895843505859375	9.6734619140625	-6.512076994170855	0	-20.098877	5.758667	-31.559753	65.7254	-5.1599	1.7020466
1448091815134	0.275054931640625	0.8280029296875	9.703216552734375	-6.5193101718798045	0	-20.039368	5.8792114	-31.619263	65.74805	-5.14344	1.7013197
1448091815174	0.281005859375	0.88751220703125	9.7020263671875	-6.509549130875632	0	-19.859314	5.8792114	-31.559753	65.74774	-5.145712	1.6968626
1448091815214	0.29766845703125	0.872039794921875	9.712738037109375	-6.507744700193338	0	-19.859314	5.758667	-31.318665	65.74768	-5.146259	1.6957914
1448091815254	0.271484375	0.84942626953125	9.64013671875	-6.526196463347649	0	-19.619751	5.519104	-31.439209	65.760864	-5.1370473	1.69456
1448091815295	0.275054931640625	0.8756103515625	9.6829833984375	-6.515149152479924	0	-19.979858	5.6396484	-31.259155	65.76944	-5.134369	1.6865519
1448091815335	0.28338623046875	0.8756103515625	9.707977294921875	-6.510090652682276	0	-19.73877	5.4595947	-31.019592	65.769775	-5.132888	1.689254
1448091815375	0.261962890625	0.874420166015625	9.697265625	-6.515149152479924	0	-19.67926	5.5786133	-31.13861	65.765564	-5.1348567	1.6917135
1448091815416	0.272674560546875	0.9136962890625	9.707977294921875	-6.505941255971582	0	-19.918823	5.6991577	-31.13861	65.75778	-5.1423016	1.688083
1448091815456	0.3095703125	0.874420166015625	9.6591796875	-6.513703073885302	0	-19.619751	5.6991577	-31.619263	65.75665	-5.1362085	1.7031654
1448091815496	0.263153076171875	0.89227294921875	9.668701171875	-6.516595866679553	0	-19.859314	5.6991577	-31.739807	65.76614	-5.1336174	1.6934838
1448091815537	0.29766845703125	0.83990478515625	9.703216552734375	-6.514064533991793	0	-20.159912	6.059265	-31.739807	65.761505	-5.1358294	1.6961677
1448091815577	0.28814697265625	0.8946533203125	9.793670654296875	-6.493524246675662	0	-20.039368	6.478882	-31.858826	65.76218	-5.137567	1.6912987
1448091815618	0.294097900390625	0.85418701171875	9.543731689453125	-6.536735079003645	0	-20.159912	6.539917	-31.559753	65.762115	-5.134952	1.6971053
1448091815658	0.277435302734375	0.9041748046875	9.748443603515625	-6.50053682593065	0	-20.159912	6.3598633	-31.498718	65.75275	-5.144867	1.690636
1448091815698	0.289337158203125	0.826812744140625	9.691314697265625	-6.519129148477605	0	-20.219421	6.059265	-31.559753	65.76425	-5.136293	1.6907296
1448091815739	0.26910400390625	0.80419921875	9.459228515625	-6.561213776716051	0	-19.918823	5.519104	-31.678772	65.782104	-5.1234517	1.6898589
1448091815779	0.260772705078125	0.974395751953125	9.7972412109375	-6.485092861972332	0	-20.098877	5.218506	-31.619263	65.77109	-5.140974	1.6695286
1448091815819	0.289337158203125	0.788726806640625	9.5782470703125	-6.5421994370855385	0	-19.918823	5.4595947	-31.739807	65.81543	-5.1036997	1.6791301
1448091815859	0.4285888671875	0.80419921875	9.6639404296875	-6.505580685360202	0	-19.918823	5.519104	-31.678772	65.85574	-5.0626698	1.7034575
1448091815900	0.303619384765625	0.95416259765625	9.75677490234375	-6.487781402250851	0	-20.27893	5.758667	-31.678772	65.81427	-5.086032	1.7194533
1448091815940	0.2191162109375	0.82562255859375	9.757965087890625	-6.519129148477605	0	-20.098877	5.819702	-31.559753	65.828094	-5.0890193	1.6906354
1448091815980	0.336944580078125	0.82562255859375	9.8543701171875	-6.487422804389712	0	-20.219421	5.6991577	-31.259155	65.854034	-5.0686445	1.6931905
1448091816020	0.289337158203125	0.87799072265625	9.696075439453125	-6.510632263460016	0	-19.859314	5.758667	-31.13861	65.838196	-5.0796466	1.6947544
1448091816061	0.284576416015625	0.845855712890625	9.679412841796875	-6.51876713157388	0	-19.558716	5.6991577	-31.079102	65.86188	-5.068597	1.6806351
1448091816101	0.2952880859375	0.8565673828125	9.6639404296875	-6.517862263658365	0	-19.499207	5.8792114	-31.259155	65.861176	-5.0642657	1.6912192
1448091816141	0.277435302734375	0.869659423828125	9.687744140625	-6.51496835791313	0	-19.1391	5.9387207	-31.318665	65.859314	-5.0679708	1.686153
1448091816181	0.28814697265625	0.867279052734375	9.684173583984375	-6.514245278926494	0	-19.499207	6.059265	-31.259155	65.855286	-5.070844	1.6863834
1448091816222	0.301239013671875	0.833953857421875	9.68060302734375	-6.517862263658365	0	-19.499207	5.819702	-31.559753	65.865906	-5.0607924	1.6911442
1448091816262	0.28338623046875	0.8660888671875	9.6734619140625	-6.516776750687242	0	-19.73877	5.5786133	-31.739807	65.85181	-5.069272	1.6954123
1448091816302	0.294097900390625	0.893463134765625	9.7781982421875	-6.495141216118831	0	-19.799805	5.519104	-31.799316	65.84149	-5.0764775	1.6963942
1448091816342	0.2762451171875	0.83990478515625	9.59490966796875	-6.533824485194179	0	-19.73877	5.218506	-32.03888	65.83444	-5.0796866	1.7007638
1448091816383	0.28814697265625	0.85894775390625	9.76629638671875	-6.503057793022578	0	-19.918823	5.4595947	-32.159424	65.83826	-5.0755115	1.7037164
1448091816423	0.275054931640625	0.888702392578125	9.691314697265625	-6.511896368186605	0	-20.039368	5.6991577	-31.799316	65.82178	-5.0918083	1.6947848
1448091816463	0.310760498046875	0.819671630859375	9.6258544921875	-6.526922177241527	0	-19.979858	5.8792114	-31.799316	65.83737	-5.0763865	1.7032412
1448091816503	0.2667236328125	0.91845703125	9.80438232421875	-6.49154902176735	0	-19.918823	6.239319	-31.799316	65.83081	-5.0808854	1.703991
1448091816544	0.26910400390625	0.90179443359375	9.705596923828125	-6.508646792125739	0	-19.799805	6.1798096	-31.858826	65.81845	-5.09785	1.6869668
1448091816584	0.289337158203125	0.888702392578125	9.67822265625	-6.511715752104294	0	-20.098877	5.999756	-31.559753	65.81799	-5.0938168	1.6964793
1448091816624	0.281005859375	0.8994140625	9.650848388671875	-6.515510771409126	0	-19.73877	5.9387207	-31.439209	65.800415	-5.106632	1.6969247
1448091816665	0.2952880859375	0.84466552734375	9.73773193359375	-6.508466354000341	0	-19.799805	5.819702	-31.439209	65.806915	-5.1027713	1.694869
1448091816705	0.296478271484375	0.872039794921875	9.56634521484375	-6.53018987896051	0	-19.918823	5.9387207	-31.619263	65.79471	-5.109925	1.6989912
1448091816745	0.286956787109375	0.891082763671875	9.855560302734375	-6.484913703325429	0	-19.319153	5.8792114	-31.739807	65.77948	-5.1216927	1.6979393
1448091816785	0.296478271484375	0.848236083984375	9.560394287109375	-6.534733767621585	0	-19.558716	5.5786133	-31.858826	65.78357	-5.117544	1.7003369
1448091816826	0.282196044921875	0.893463134765625	9.8067626953125	-6.492626271226641	0	-19.558716	5.9387207	-31.799316	65.77985	-5.1240783	1.6921492
1448091816866	0.294097900390625	0.889892578125	9.653228759765625	-6.514606798566976	0	-19.799805	5.9387207	-31.97937	65.77252	-5.1293154	1.6925757
1448091816906	0.3095703125	0.860137939453125	9.7115478515625	-6.507925098844139	0	-20.098877	5.9387207	-31.97937	65.7832	-5.120546	1.694439
1448091816946	0.286956787109375	0.886322021484375	9.729400634765625	-6.504679431094779	0	-20.219421	6.239319	-31.799316	65.780304	-5.122286	1.6953294
1448091816987	0.313140869140625	0.862518310546875	9.6639404296875	-6.514245278926494	0	-20.159912	5.5786133	-31.91986	65.77588	-5.1228557	1.7011876
1448091817027	0.286956787109375	0.860137939453125	9.69012451171875	-6.514606798566976	0	-19.918823	5.519104	-31.799316	65.784454	-5.115835	1.7026643
1448091817067	0.271484375	0.867279052734375	9.679412841796875	-6.5175003861951435	0	-19.918823	5.6991577	-31.678772	65.785	-5.117698	1.6977043
1448091817107	0.271484375	0.83990478515625	9.677032470703125	-6.522026720126437	0	-19.799805	5.519104	-31.799316	65.80078	-5.10861	1.6920396
1448091817148	0.28338623046875	0.8851318359375	9.72344970703125	-6.5063018659767256	0	-19.73877	5.6991577	-31.739807	65.79401	-5.114425	1.6903384
1448091817189	0.286956787109375	0.8565673828125	9.68060302734375	-6.516595866679553	0	-20.219421	5.9387207	-31.498718	65.800415	-5.1090155	1.6917782
1448091817229	0.2572021484375	0.88751220703125	9.755584716796875	-6.505039903278205	0	-20.399475	5.8792114	-31.498718	65.806335	-5.1088276	1.6825898
1448091817269	0.296478271484375	0.869659423828125	9.63775634765625	-6.5196722485931105	0	-20.098877	5.519104	-31.498718	65.8024	-5.1118383	1.6824048
1448091817309	0.289337158203125	0.870849609375	9.725830078125	-6.507203563422072	0	-20.159912	5.6396484	-31.498718	65.79852	-5.1148224	1.6821814
1448091817350	0.28338623046875	0.861328125	9.62823486328125	-6.524382880620173	0	-19.799805	5.5786133	-31.498718	65.797485	-5.1155944	1.6821878
1448091817390	0.286956787109375	0.85418701171875	9.703216552734375	-6.513522358710244	0	-19.619751	5.4595947	-31.3797	65.81003	-5.1092305	1.6757896
1448091817430	0.27386474609375	0.851806640625	9.653228759765625	-6.52347646493703	0	-20.098877	5.819702	-31.079102	65.813416	-5.105798	1.6777707
1448091817470	0.303619384765625	0.85894775390625	9.67822265625	-6.514064533991793	0	-19.859314	5.819702	-31.259155	65.814545	-5.1048903	1.677958
1448091817511	0.2667236328125	0.85894775390625	9.73297119140625	-6.51135454963898	0	-20.039368	6.059265	-31.318665	65.81943	-5.10167	1.6770828
1448091817551	0.29052734375	0.870849609375	9.731781005859375	-6.506121556049127	0	-20.219421	6.3598633	-31.259155	65.81854	-5.1024227	1.6768645
1448091817591	0.272674560546875	0.8375244140625	9.66156005859375	-6.524564193796307	0	-20.27893	6.1187744	-31.559753	65.83099	-5.0952067	1.6724975
1448091817631	0.261962890625	0.857757568359375	9.707977294921875	-6.516053274316523	0	-20.159912	5.819702	-31.559753	65.83487	-5.095844	1.6648244
1448091817672	0.29766845703125	0.8470458984375	9.6163330078125	-6.526196463347649	0	-20.098877	5.819702	-31.559753	65.841736	-5.0915933	1.6629955
1448091817712	0.286956787109375	0.88037109375	9.75201416015625	-6.502157226851155	0	-19.859314	5.4595947	-32.03888	65.83441	-5.095093	1.6672242
1448091817752	0.3143310546875	0.879180908203125	9.650848388671875	-6.513522358710244	0	-19.859314	5.819702	-31.97937	65.82413	-5.100225	1.6726373
1448091817792	0.265533447265625	0.874420166015625	9.74249267578125	-6.507744700193338	0	-19.73877	5.758667	-31.799316	65.824585	-5.103633	1.6644803
1448091817833	0.272674560546875	0.89227294921875	9.62823486328125	-6.521302087626317	0	-19.619751	5.5786133	-31.619263	65.81	-5.1133003	1.6669989
1448091817873	0.2952880859375	0.83990478515625	9.715118408203125	-6.512618931551537	0	-19.918823	5.819702	-31.3797	65.81589	-5.11059	1.6633369
1448091817913	0.286956787109375	0.881561279296875	9.679412841796875	-6.512980272678231	0	-19.619751	5.519104	-31.199646	65.82309	-5.1013207	1.6719137
1448091817953	0.2857666015625	0.86370849609375	9.65203857421875	-6.520034365195942	0	-19.799805	5.758667	-31.318665	65.82562	-5.0993333	1.6721977
1448091817994	0.29052734375	0.857757568359375	9.693695068359375	-6.513883798978608	0	-19.558716	5.758667	-31.559753	65.83191	-5.094139	1.6733494
1448091818034	0.2857666015625	0.870849609375	9.67108154296875	-6.516053274316523	0	-19.439697	5.999756	-31.3797	65.819244	-5.099613	1.6818365
1448091818074	0.29052734375	0.872039794921875	9.741302490234375	-6.504499209759603	0	-19.859314	5.758667	-31.559753	65.82379	-5.096532	1.6788267
1448091818114	0.284576416015625	0.869659423828125	9.698455810546875	-6.5122576300586745	0	-19.558716	5.819702	-31.318665	65.82257	-5.0987687	1.6783171
1448091818155	0.29290771484375	0.86846923828125	9.687744140625	-6.512799597159839	0	-19.67926	5.8792114	-31.079102	65.81711	-5.1001325	1.6841614
1448091818195	0.291717529296875	0.862518310546875	9.71630859375	-6.509549130875632	0	-19.73877	5.819702	-30.899048	65.81958	-5.100342	1.679726
1448091818235	0.28338623046875	0.845855712890625	9.6734619140625	-6.519853301907512	0	-19.499207	5.8792114	-30.839539	65.82367	-5.096448	1.6815759
1448091818276	0.294097900390625	0.84942626953125	9.703216552734375	-6.507023204219971	0	-19.558716	5.999756	-31.439209	65.815	-5.10305	1.6812166
1448091818316	0.31195068359375	0.864898681640625	9.6544189453125	-6.515510771409126	0	-19.259644	6.059265	-31.678772	65.81613	-5.098633	1.689003
1448091818356	0.27862548828125	0.87799072265625	9.6925048828125	-6.512799597159839	0	-19.439697	6.059265	-31.91986	65.81732	-5.099456	1.6853081
1448091818397	0.300048828125	0.843475341796875	9.6925048828125	-6.514787573276026	0	-19.499207	6.239319	-31.439209	65.82355	-5.096295	1.6821328
1448091818437	0.300048828125	0.872039794921875	9.6925048828125	-6.5104517166457185	0	-19.67926	6.239319	-31.318665	65.81177	-5.1024065	1.6878172
1448091818477	0.271484375	0.86846923828125	9.679412841796875	-6.517319462393314	0	-20.039368	6.478882	-31.559753	65.81128	-5.105989	1.6808025
1448091818517	0.27862548828125	0.876800537109375	9.7020263671875	-6.511535145922295	0	-19.918823	6.3598633	-31.619263	65.80856	-5.108323	1.6801308
1448091818558	0.27386474609375	0.862518310546875	9.681793212890625	-6.5175003861951435	0	-20.098877	6.1798096	-31.559753	65.80975	-5.1110845	1.6721655
