timestamp	accel_x	accel_y	accel_z	accel_mag	temperature	mag_x	mag_y	mag_z	azimuth	pitch	roll
1448135009806	1.046295166015625	4.34857177734375	8.735595703125	-6.04754923597933	0	-22.439575	-17.098999	-26.759338	105.92078	-24.832077	2.823385
1448135009847	1.767547607421875	4.830596923828125	9.34259033203125	-5.814015014895581	0	-22.31903	-17.399597	-26.638794	106.992645	-24.920694	2.8140361
1448135009887	2.38525390625	5.174560546875	8.90936279296875	-5.748376589923399	0	-22.079468	-18.119812	-26.399231	108.75314	-25.505297	3.0268075
1448135009927	1.59735107421875	4.2509765625	9.459228515625	-5.89411279205366	0	-21.418762	-18.959045	-26.098633	111.382324	-25.865204	2.6904755
1448135009967	1.001068115234375	3.980804443359375	9.33544921875	-6.022776302026777	0	-21.11969	-19.378662	-25.79956	112.700134	-25.963594	2.2029374
1448135010008	0.54522705078125	3.77252197265625	9.3782958984375	-6.105783208820652	0	-20.458984	-20.458984	-25.679016	115.26416	-26.13671	0.7649988
1448135010048	-0.55450439453125	3.079833984375	9.208099365234375	-6.381190687950106	0	-18.838501	-21.479797	-25.91858	119.32968	-26.995667	-1.2392526
1448135010088	-0.96392822265625	2.757293701171875	9.50921630859375	-6.4446687414657955	0	-18.539429	-21.479797	-25.91858	120.711365	-27.472816	-1.6853821
1448135010128	-1.70660400390625	3.480926513671875	10.743438720703125	-6.268555168391905	0	-16.738892	-23.638916	-25.19989	123.43442	-28.741377	-3.2530868
1448135010169	-0.615203857421875	4.211700439453125	10.167388916015625	-6.096628908731649	0	-15.779114	-24.35913	-25.079346	123.62085	-28.575384	-4.188296
1448135010209	-0.556884765625	5.3507080078125	9.82342529296875	-5.983348957345823	0	-13.55896	-25.679016	-24.659729	124.34674	-29.140984	-7.769124
1448135010249	-2.964630126953125	3.30596923828125	7.0931396484375	-7.079975940881173	0	-12.298584	-26.159668	-24.659729	125.73563	-30.159475	-10.413164
1448135010289	-3.416900634765625	2.42999267578125	10.802947998046875	-6.673543977669326	0	-10.798645	-27.23999	-24.539185	127.88614	-31.286278	-11.195155
1448135010330	-0.212921142578125	4.399749755859375	8.215484619140625	-6.2849081860529195	0	-9.899902	-28.079224	-23.81897	129.40082	-33.246616	-11.573695
1448135010370	-1.091278076171875	5.563751220703125	9.06646728515625	-6.127070080338046	0	-9.4192505	-28.678894	-23.458862	130.43622	-34.42629	-11.663933
1448135010410	-0.89013671875	5.63873291015625	8.662994384765625	-6.144416146590688	0	-7.499695	-30.599976	-21.359253	135.21954	-37.39373	-11.867388
1448135010450	-0.92584228515625	5.877960205078125	7.4263916015625	-6.288289393830559	0	-6.539917	-31.91986	-19.439697	138.60541	-39.32282	-12.658112
1448135010491	-0.60687255859375	5.71490478515625	6.25762939453125	-6.435300306841032	0	-4.8599243	-33.239746	-17.69867	142.64343	-40.809998	-13.445116
1448135010531	-0.47357177734375	5.26263427734375	8.07147216796875	-6.220441237763064	0	-4.1992188	-33.718872	-16.738892	147.41647	-41.43171	-14.315169
1448135010571	0.2381591796875	4.792510986328125	5.528045654296875	-6.557182233643617	0	-1.979065	-34.739685	-15.299988	149.64456	-41.925053	-15.209096
1448135010612	-1.9613037109375	5.079345703125	7.155029296875	-6.601436776533447	0	1.979065	-35.398865	-13.378906	157.84613	-42.537632	-18.160376
1448135010652	-2.326690673828125	5.011505126953125	6.308807373046875	-6.807663217376552	0	4.978943	-35.4599	-12.539673	164.06323	-42.073822	-20.13731
1448135010692	-3.433563232421875	4.606842041015625	2.504974365234375	-7.888722742762685	0	8.1588745	-34.979248	-11.878967	169.64954	-41.66068	-22.792707
1448135010732	-4.311920166015625	4.173614501953125	5.249542236328125	-7.545795591771453	0	9.838867	-34.55963	-11.219788	176.15045	-38.77513	-24.398981
1448135010773	-5.559234619140625	3.62969970703125	6.039825439453125	-7.779214854709705	0	12.89978	-33.239746	-11.338806	179.63422	-36.293934	-24.779045
1448135010813	-7.532562255859375	3.460693359375	8.8260498046875	-7.626191573075556	0	16.079712	-32.099915	-12.658691	185.63124	-31.085688	-25.28955
1448135010853	-8.1026611328125	5.113861083984375	13.135711669921875	-6.6211782663682115	0	18.778992	-29.818726	-15.419006	192.56996	-25.288841	-23.184643
1448135010893	-4.347625732421875	3.34405517578125	6.844390869140625	-7.389821087376836	0	19.67926	-28.919983	-16.918945	193.36057	-26.097153	-23.945234
1448135010934	-2.70159912109375	4.587799072265625	5.539947509765625	-7.081504137293974	0	20.098877	-28.73993	-17.158508	193.22267	-27.49936	-24.958796
1448135010974	-3.2657470703125	4.79132080078125	7.694183349609375	-6.770194710833527	0	20.579529	-28.259277	-16.679382	193.42372	-27.572037	-25.121395
1448135011014	-2.207672119140625	3.816558837890625	10.1971435546875	-6.37060956441414	0	21.1792	-28.318787	-16.079712	194.58081	-27.134626	-24.97708
1448135011054	-1.626861572265625	5.08172607421875	7.656097412109375	-6.473289046299085	0	21.598816	-28.138733	-15.7196045	194.86258	-28.068222	-25.419655
1448135011095	-3.657318115234375	4.192657470703125	6.706329345703125	-7.115565124497292	0	22.019958	-27.598572	-15.7196045	196.6539	-28.300608	-25.438608
1448135011135	-5.102203369140625	4.717529296875	8.2642822265625	-6.999536025970039	0	22.079468	-27.2995	-15.838623	197.98189	-28.102272	-25.238306
1448135011175	-3.685882568359375	4.261688232421875	7.722747802734375	-6.925879002264038	0	22.37854	-26.818848	-15.658569	200.2264	-27.65857	-24.575354
1448135011215	-4.73443603515625	3.822509765625	8.415435791015625	-7.067346539386255	0	23.15979	-26.579285	-16.319275	202.69794	-26.783598	-23.540657
1448135011256	-2.33026123046875	4.204559326171875	8.962921142578125	-6.514606798566976	0	23.2193	-26.519775	-16.97998	203.87941	-26.155993	-22.613825
1448135011296	-1.851806640625	3.952239990234375	9.3544921875	-6.4220874003618516	0	23.278809	-26.278687	-17.219543	204.61826	-25.79199	-22.166834
1448135011336	-1.70184326171875	3.797515869140625	7.27166748046875	-6.74598893554071	0	23.339844	-26.219177	-17.338562	204.91359	-25.908901	-22.286743
1448135011376	-1.2852783203125	4.121246337890625	7.69775390625	-6.5193101718798045	0	23.458862	-25.85907	-17.338562	205.99808	-25.916725	-22.116772
1448135011417	-3.781097412109375	3.726104736328125	7.707275390625	-7.040324034944497	0	23.638916	-25.019836	-17.759705	209.63301	-24.290815	-20.730387
1448135011457	-6.75299072265625	3.84393310546875	9.2164306640625	-7.295151603780201	0	24.119568	-24.35913	-18.659973	211.83371	-22.789785	-20.293253
1448135011497	-2.959869384765625	3.47735595703125	9.638946533203125	-6.619684076184507	0	23.939514	-23.638916	-20.098877	212.80287	-21.569822	-19.122375
1448135011538	-2.298126220703125	3.77252197265625	9.8924560546875	-6.43512379414586	0	23.81897	-23.2193	-20.639038	213.08536	-20.956383	-18.246445
1448135011578	-1.710174560546875	4.061737060546875	8.773681640625	-6.583662038828159	0	23.579407	-22.619629	-21.598816	213.2089	-20.338863	-17.263577
1448135011618	-2.717071533203125	3.8082275390625	8.427337646484375	-6.72139439058857	0	22.979736	-22.138977	-22.019958	213.11418	-20.030994	-17.116144
1448135011658	-2.245758056640625	3.764190673828125	8.488037109375	-6.64329955164507	0	23.278809	-21.958923	-22.019958	212.96852	-19.752567	-17.24027
1448135011699	-2.52069091796875	3.62255859375	9.053375244140625	-6.61987081164372	0	23.15979	-21.839905	-22.198486	212.85304	-19.460953	-17.207945
1448135011739	-2.6373291015625	3.254791259765625	8.955780029296875	-6.712534359535984	0	23.339844	-21.77887	-22.439575	212.82437	-19.306398	-17.064508
1448135011779	-2.433807373046875	3.38214111328125	9.306884765625	-6.604222991298592	0	23.278809	-21.659851	-23.098755	212.82545	-18.89825	-16.702263
1448135011820	-2.874176025390625	3.19171142578125	8.039337158203125	-6.9157744157431855	0	22.619629	-21.479797	-23.75946	213.38217	-18.755669	-16.29666
1448135011860	-2.05889892578125	2.900115966796875	9.212860107421875	-6.635783520221093	0	22.499084	-21.479797	-24.119568	213.94128	-18.71743	-15.548846
1448135011900	-1.7899169921875	3.692779541015625	7.88104248046875	-6.678676562750156	0	22.499084	-21.1792	-24.058533	214.11688	-19.100727	-14.980876
1448135011940	-1.71612548828125	3.166717529296875	8.38330078125	-6.670696171394022	0	22.439575	-21.299744	-23.519897	214.23573	-19.209908	-14.794891
1448135011980	-1.8756103515625	2.89892578125	9.781768798828125	-6.519491205251091	0	22.259521	-21.659851	-23.75946	214.63599	-19.587246	-14.373098
1448135012021	-1.6470947265625	3.369049072265625	6.875335693359375	-6.874486421186502	0	21.958923	-21.659851	-23.2193	214.78296	-20.958021	-15.097106
1448135012061	-3.064605712890625	3.4844970703125	7.589447021484375	-6.976522548956257	0	21.71936	-22.198486	-22.679138	215.3809	-22.66163	-15.44621
1448135012101	-2.58734130859375	2.92987060546875	8.70941162109375	-6.797955634514317	0	21.899414	-22.37854	-22.558594	215.27583	-25.34614	-15.859847
1448135012141	-0.331939697265625	3.678497314453125	7.5263671875	-6.509188165744609	0	22.198486	-22.738647	-21.1792	214.81567	-27.390125	-16.169176
1448135012182	-2.24456787109375	3.37261962890625	9.291412353515625	-6.57868052898959	0	22.558594	-24.778748	-17.69867	212.08636	-36.17798	-17.960335
1448135012222	-2.33026123046875	3.216705322265625	8.977203369140625	-6.665955565980526	0	22.738647	-26.45874	-14.099121	207.55939	-44.17142	-20.032213
1448135012262	1.86871337890625	6.82177734375	7.334747314453125	-5.803446488440722	0	22.259521	-28.439331	-8.81958	201.22855	-54.795135	-20.518002
1448135012302	1.5283203125	10.619659423828125	3.666595458984375	-5.829845645590804	0	22.019958	-29.039001	-5.6396484	197.6859	-60.548588	-20.4259
1448135012343	-3.145538330078125	10.99932861328125	3.768951416015625	-6.397385765133151	0	20.878601	-30.178833	0.8987427	189.93797	-71.29945	-20.839571
1448135012383	-4.642791748046875	11.982421875	-2.7996826171875	-7.675884742213163	0	17.57965	-30.659485	10.919189	177.91077	-83.57061	-19.766438
1448135012423	-3.721588134765625	11.705108642578125	-0.320526123046875	-7.038388594639921	0	15.119934	-30.239868	15.899658	173.56213	-86.5293	-16.865908
1448135012463	-0.46405029296875	11.07073974609375	2.557342529296875	-6.17837288714972	0	11.999512	-30.718994	18.959045	171.68036	-86.21455	-12.460507
1448135012504	-0.36407470703125	12.37518310546875	0.798248291015625	-6.227583837777045	0	10.139465	-30.778503	19.979858	169.41132	-86.20735	-8.863247
1448135012544	-0.89013671875	11.450408935546875	0.1900634765625	-6.617630707817277	0	7.319641	-31.019592	20.518494	167.9862	-86.576454	-7.742367
1448135012584	-1.7613525390625	10.8636474609375	-0.758514404296875	-6.918039715432942	0	2.8198242	-31.739807	20.819092	161.99573	-88.493706	-4.980368
1448135012624	-1.27813720703125	11.664642333984375	-4.470703125	-7.374357824156252	0	0.23956299	-31.318665	21.479797	157.08582	-91.61529	-3.3228726
1448135012665	0.060821533203125	11.852691650390625	-3.338836669921875	-6.878345141953679	0	-2.1591187	-30.778503	22.198486	153.81433	-93.563446	-1.2804759
1448135012705	-0.7711181640625	9.339019775390625	0.500701904296875	-6.795187787162806	0	-3.4194946	-30.718994	22.439575	152.7284	-93.83526	-0.52695906
1448135012745	-0.258148193359375	9.077178955078125	-0.95013427734375	-7.001444659492989	0	-5.4595947	-30.358887	23.039246	151.21252	-94.014	0.764652
1448135012785	0.73565673828125	9.31640625	-0.810882568359375	-6.766669010664572	0	-8.338928	-29.638672	23.399353	149.37955	-94.38095	3.6571145
1448135012826	-0.28314208984375	10.28521728515625	-1.408355712890625	-6.875095355210592	0	-9.298706	-29.638672	23.458862	148.76276	-95.066154	4.8301945
1448135012866	0.4000244140625	11.8157958984375	-0.837066650390625	-6.433359175198222	0	-9.719849	-29.579163	23.638916	149.42136	-96.591	4.8916717
1448135012906	0.21197509765625	11.25164794921875	-0.9715576171875	-6.567454212961772	0	-10.379028	-29.159546	24.35913	150.5852	-98.52173	4.3157077
1448135012947	0.148895263671875	10.588714599609375	-0.62164306640625	-6.626039232324746	0	-11.938477	-32.998657	24.539185	151.00781	-99.34257	3.9142795
1448135012987	1.020111083984375	10.657745361328125	-1.541656494140625	-6.622860068540165	0	-11.639404	-31.678772	26.638794	153.61304	-102.21536	3.3227122
1448135013027	0.355987548828125	10.7208251953125	-3.2471923828125	-7.008454120792104	0	-11.459351	-30.659485	27.778625	152.90796	-105.1801	3.4038405
1448135013067	0.06915283203125	9.7353515625	-3.34716796875	-7.26547103322534	0	-11.459351	-29.93927	28.49884	152.2204	-108.2584	3.113643
1448135013108	0.272674560546875	9.146209716796875	-2.641387939453125	-7.203237493953132	0	-11.399841	-28.559875	29.759216	152.07605	-109.51383	2.8338187
1448135013148	0.722564697265625	8.640380859375	-2.09747314453125	-7.111145972918592	0	-11.759949	-27.2995	30.899048	151.9526	-111.42685	2.2473505
1448135013188	-0.28790283203125	8.2071533203125	-3.63519287109375	-7.7368034841106965	0	-11.878967	-25.85907	32.099915	150.91602	-113.57165	1.78964
1448135013228	0.27862548828125	7.963165283203125	-4.02081298828125	-7.7520981666586115	0	-12.298584	-25.619507	32.57904	149.8287	-114.2862	2.1630158
1448135013268	0.563079833984375	8.251190185546875	-3.68756103515625	-7.5423762954215405	0	-12.298584	-25.498962	32.63855	149.21771	-114.180016	2.700056
1448135013309	0.632110595703125	8.070281982421875	-3.764923095703125	-7.584558262673296	0	-12.478638	-25.498962	32.699585	149.0149	-113.86032	3.0028253
1448135013349	0.433349609375	8.610626220703125	-2.367645263671875	-7.222740374090293	0	-12.779236	-25.619507	32.218933	148.94788	-111.912796	3.7255325
1448135013390	0.623779296875	8.6927490234375	-2.629486083984375	-7.22066840068649	0	-12.658691	-26.039124	31.619263	149.2233	-110.012985	4.212249
1448135013430	0.670196533203125	9.879364013671875	-2.06414794921875	-6.893626845702787	0	-12.95929	-27.059937	30.479431	149.59671	-107.60868	4.8957753
1448135013470	0.8380126953125	11.348052978515625	-1.927276611328125	-6.603665554448545	0	-13.139343	-27.539063	29.87976	149.4914	-105.14758	5.66039
1448135013511	0.808258056640625	11.586090087890625	-1.5999755859375	-6.521120954473496	0	-13.619995	-28.73993	29.039001	149.4585	-103.93473	5.954554
1448135013551	0.720184326171875	10.5684814453125	-1.090576171875	-6.613155214253833	0	-14.15863	-30.299377	27.659607	149.58063	-101.50155	6.3668814
1448135013591	1.27362060546875	10.42327880859375	-0.93585205078125	-6.526196463347649	0	-15.058899	-31.799316	25.91858	149.39874	-97.99985	7.4403443
1448135013631	1.265289306640625	11.519439697265625	-0.703765869140625	-6.330832007920318	0	-15.658569	-32.57904	24.35913	148.613	-96.288956	8.343118
1448135013672	0.43096923828125	11.98956298828125	-1.446441650390625	-6.493883505011049	0	-15.9591675	-32.759094	23.939514	147.91962	-95.81334	9.143537
1448135013712	0.3428955078125	11.344482421875	-1.06915283203125	-6.5480381856935335	0	-16.319275	-32.939148	23.339844	147.86041	-96.027695	9.303874
1448135013752	0.282196044921875	10.388763427734375	-0.610931396484375	-6.634845268597857	0	-16.619873	-32.87964	22.979736	147.69086	-96.885635	8.937273
1448135013793	1.065338134765625	9.697265625	0.0091552734375	-6.524564193796307	0	-16.259766	-32.63855	23.278809	147.07892	-98.62623	7.7942276
1448135013833	0.84991455078125	10.87554931640625	-1.253631591796875	-6.570578943920385	0	-16.378784	-31.619263	23.878479	146.70148	-100.71682	7.422244
1448135013873	1.118896484375	10.8446044921875	-2.498565673828125	-6.730086502104309	0	-16.018677	-31.259155	24.179077	146.41919	-103.39721	7.034425
1448135013915	0.50714111328125	10.52325439453125	-2.0379638671875	-6.726799932295726	0	-15.838623	-30.479431	25.498962	146.41577	-104.67981	6.746719
1448135013955	0.5	9.341400146484375	-2.823486328125	-7.157465458614951	0	-15.539551	-28.619385	27.2995	146.07349	-108.51953	5.776008
1448135013996	1.26409912109375	9.5068359375	-3.079376220703125	-7.033234023809582	0	-15.238953	-28.079224	28.799438	145.5285	-111.55798	5.591049
1448135014036	0.47857666015625	9.070037841796875	-3.176971435546875	-7.282388624856022	0	-15.119934	-27.479553	29.519653	144.70972	-114.05073	5.213652
1448135014076	0.37384033203125	8.227386474609375	-3.01153564453125	-7.442347229649634	0	-15.119934	-26.519775	30.178833	144.27197	-114.936134	4.9580812
1448135014116	1.239105224609375	8.23809814453125	-3.150787353515625	-7.346139976876148	0	-15.419006	-25.2594	31.079102	143.59515	-116.136215	4.9105196
1448135014157	0.6475830078125	8.127410888671875	-5.197906494140625	-7.915281041615732	0	-15.658569	-24.058533	31.259155	142.21735	-116.704666	5.765603
1448135014197	1.089141845703125	8.148834228515625	-3.61376953125	-7.435059036202674	0	-16.018677	-24.058533	30.958557	141.9766	-116.08488	5.8834147
1448135014237	0.470245361328125	7.501373291015625	-3.357879638671875	-7.658638404982092	0	-16.259766	-24.058533	30.778503	141.70044	-114.797226	5.882234
1448135014277	0.751129150390625	8.06195068359375	-3.184112548828125	-7.4340555251468405	0	-16.499329	-24.839783	30.059814	141.58603	-113.91493	5.856192
1448135014318	0.658294677734375	8.601104736328125	-2.936553955078125	-7.292073114284841	0	-16.499329	-25.979614	29.278564	141.75131	-111.592224	5.6674857
1448135014359	0.820159912109375	11.07073974609375	-1.275054931640625	-6.54840345489065	0	-16.619873	-27.83966	28.199768	142.72568	-107.013824	5.680156
1448135014399	0.5523681640625	11.221893310546875	-2.0093994140625	-6.681722072696779	0	-16.43982	-29.638672	27.119446	142.99716	-104.06461	5.935849
1448135014439	0.0382080078125	11.01123046875	-1.305999755859375	-6.68515182315914	0	-16.619873	-30.239868	26.519775	142.98254	-102.607544	5.901459
1448135014479	0.210784912109375	11.01837158203125	-1.246490478515625	-6.647064272139813	0	-16.319275	-31.439209	25.2594	142.85175	-99.872986	5.9897537
1448135014520	0.584503173828125	10.78509521484375	-1.10009765625	-6.601993825690608	0	-16.499329	-32.51953	23.458862	142.62064	-96.99696	6.52626
1448135014560	0.589263916015625	11.70867919921875	-0.709716796875	-6.40245160159558	0	-16.378784	-32.759094	22.679138	142.60837	-96.157814	6.544904
1448135014600	0.55474853515625	10.89697265625	-0.699005126953125	-6.527466568062055	0	-16.43982	-33.239746	22.259521	142.61087	-96.228874	6.461065
1448135014640	-0.4378662109375	10.17572021484375	-1.75469970703125	-6.981152372300098	0	-16.619873	-32.998657	22.499084	142.46051	-97.24911	5.72904
1448135014681	-0.01177978515625	9.684173583984375	-0.785888671875	-6.825575825835502	0	-16.499329	-33.17871	22.31903	142.36993	-97.920616	5.2599244
1448135014721	0.63092041015625	10.281646728515625	0.1900634765625	-6.474538983866836	0	-16.19873	-32.51953	23.699951	141.90582	-100.34544	5.210118
1448135014761	1.3997802734375	11.595611572265625	-2.477142333984375	-6.56341491250981	0	-16.259766	-31.619263	24.539185	141.17517	-102.99082	5.8296337
1448135014801	-0.020111083984375	12.276397705078125	-3.17578125	-6.7932123098589265	0	-16.319275	-31.019592	25.439453	140.48987	-105.76492	5.7932067
1448135014842	0.54522705078125	10.457794189453125	-2.6663818359375	-6.919276082546872	0	-16.679382	-30.419922	25.91858	140.21198	-107.253235	5.725741
1448135014882	0.46905517578125	8.363067626953125	-2.700897216796875	-7.330468826992902	0	-16.97998	-28.678894	27.178955	138.82336	-111.61761	5.8057995
1448135014922	0.670196533203125	7.26690673828125	-3.034149169921875	-7.5923384748945075	0	-17.518616	-27.359009	27.598572	137.95865	-113.83247	5.829017
1448135014963	0.91180419921875	7.80487060546875	-4.0184326171875	-7.6390571082675205	0	-17.819214	-25.79956	29.09851	137.47852	-115.442	6.0398917
1448135015003	0.40240478515625	7.903656005859375	-4.562347412109375	-7.871732206349423	0	-18.299866	-24.479675	29.87976	137.38565	-116.56876	6.0703673
1448135015044	0.486907958984375	7.55255126953125	-4.531402587890625	-7.93361931653714	0	-18.539429	-24.179077	29.93927	137.35355	-116.94399	6.0181427
1448135015084	0.3048095703125	7.422821044921875	-3.77325439453125	-7.818038655534327	0	-18.47992	-23.579407	30.299377	137.3309	-116.98394	5.6980443
1448135015124	0.204833984375	7.344268798828125	-3.629241943359375	-7.826736156236053	0	-18.418884	-23.81897	30.239868	137.3742	-116.23284	5.4812098
1448135015164	0.08819580078125	7.801300048828125	-3.3614501953125	-7.678679500005492	0	-17.939758	-24.479675	29.99878	137.31097	-114.84264	5.4771285
1448135015205	0.6666259765625	8.66656494140625	-2.910369873046875	-7.2722714804663	0	-17.878723	-24.839783	29.87976	137.61148	-112.95254	5.636511
1448135015245	0.660675048828125	9.4068603515625	-2.767547607421875	-7.104751041792166	0	-17.759705	-25.679016	29.458618	137.81827	-111.84602	5.7792764
1448135015285	0.886810302734375	9.798431396484375	-1.679718017578125	-6.8056795276048	0	-17.57965	-27.119446	28.079224	138.65839	-107.77357	6.4755507
1448135015326	1.558074951171875	11.31829833984375	-1.515472412109375	-6.436006450058647	0	-17.518616	-27.83966	26.998901	139.46735	-105.00155	6.9134436
1448135015366	0.42620849609375	11.3111572265625	-1.11199951171875	-6.546942623689185	0	-17.57965	-29.159546	25.679016	139.97046	-102.15691	7.2947197
1448135015406	1.4188232421875	11.531341552734375	-1.172698974609375	-6.374768736619981	0	-17.63916	-29.818726	25.079346	140.41406	-99.49209	7.905984
1448135015446	1.315277099609375	11.4873046875	-1.358367919921875	-6.4236702243192365	0	-18.119812	-30.899048	23.878479	140.55676	-98.33045	8.182635
1448135015487	0.35003662109375	11.445648193359375	-0.63592529296875	-6.465977375176241	0	-18.058777	-31.97937	22.918701	140.7583	-96.64558	8.196016
1448135015527	-0.508087158203125	11.062408447265625	-1.16912841796875	-6.743073784820219	0	-18.179321	-32.87964	22.31903	141.01978	-96.22991	7.723544
1448135015567	-0.567596435546875	10.195953369140625	-0.963226318359375	-6.862940608148698	0	-17.759705	-32.998657	22.198486	141.15543	-97.26914	6.9787426
1448135015608	0.1048583984375	10.45660400390625	-0.31219482421875	-6.605152268406526	0	-17.399597	-32.87964	22.31903	141.26276	-97.95138	6.5447145
1448135015649	0.6666259765625	10.7493896484375	-1.163177490234375	-6.7240959765334445	0	-17.219543	-32.699585	23.098755	141.35681	-99.80349	6.309787
1448135015689	1.696136474609375	12.704864501953125	-3.422149658203125	-6.4931650272927675	0	-17.69867	-31.858826	24.839783	140.97894	-104.27444	7.2103815
1448135015729	0.86419677734375	11.226654052734375	-3.13531494140625	-6.814019860944092	0	-17.69867	-31.019592	25.91858	140.31268	-107.45089	7.07
1448135015769	1.2188720703125	8.836761474609375	-2.593780517578125	-7.074960743556399	0	-17.999268	-29.458618	27.178955	139.72836	-110.13364	6.6872416
1448135015810	1.3712158203125	8.710601806640625	-2.5902099609375	-7.069519864889662	0	-18.179321	-28.858948	27.89917	139.08969	-112.34351	6.76089
1448135015850	0.8665771484375	8.098846435546875	-3.4281005859375	-7.453448284099201	0	-17.759705	-26.519775	29.219055	138.41925	-114.13774	6.8160005
1448135015890	0.52142333984375	7.667999267578125	-3.760162353515625	-7.702019221339734	0	-18.179321	-25.2594	29.818726	137.90707	-115.47305	6.747688
1448135015930	0.3095703125	7.7120361328125	-4.121978759765625	-7.831852500812603	0	-18.23883	-24.659729	30.299377	137.54895	-116.37143	6.720217
1448135015971	0.31195068359375	7.970306396484375	-3.947021484375	-7.724477142024725	0	-18.47992	-23.999023	30.239868	137.3107	-116.75792	6.727816
1448135016011	0.239349365234375	7.93817138671875	-3.733978271484375	-7.698628823615287	0	-18.659973	-23.999023	30.178833	137.20929	-116.70699	6.709838
1448135016051	0.748748779296875	7.691802978515625	-3.541168212890625	-7.593144885270569	0	-18.838501	-24.179077	30.358887	137.28442	-115.66205	6.6297684
1448135016092	0.642822265625	8.3214111328125	-3.395965576171875	-7.446882257924557	0	-19.018555	-24.598694	30.059814	137.52136	-114.37231	6.646312
1448135016132	0.698760986328125	8.4404296875	-2.80682373046875	-7.290180531119786	0	-18.659973	-25.2594	29.3396	137.85382	-112.40622	6.676669
1448135016172	0.68328857421875	9.2354736328125	-2.328369140625	-7.051533201099064	0	-18.299866	-25.79956	29.159546	138.46594	-109.98177	6.5803976
1448135016213	0.87847900390625	9.981719970703125	-2.089141845703125	-6.845002942852243	0	-17.939758	-26.879883	28.259277	138.83905	-108.68244	6.597667
1448135016253	0.586883544921875	11.238555908203125	-1.641632080078125	-6.615392176456243	0	-17.03949	-28.979492	26.339722	139.93689	-104.583275	6.8474674
1448135016293	0.672576904296875	11.736053466796875	-1.296478271484375	-6.473110522049097	0	-17.03949	-30.299377	25.379944	140.86188	-101.87326	7.0032845
1448135016333	0.4619140625	12.02288818359375	-0.86444091796875	-6.397734891474142	0	-17.03949	-31.079102	24.238586	141.40344	-99.58479	7.154403
1448135016374	1.0570068359375	11.02313232421875	-1.010833740234375	-6.479543430008759	0	-17.158508	-31.439209	23.75946	141.46283	-97.93987	7.217226
1448135016414	1.222442626953125	11.590850830078125	-1.451202392578125	-6.4358299003858	0	-17.279053	-32.458496	23.15979	141.47403	-97.46194	7.152913
1448135016454	-0.093902587890625	10.650604248046875	-1.184600830078125	-6.745211290594066	0	-16.859436	-33.299255	22.738647	141.56989	-97.45823	6.7992268
1448135016494	-0.137939453125	10.078125	-1.1810302734375	-6.847012989378839	0	-16.679382	-33.47931	22.738647	141.41492	-98.695145	6.000841
1448135016535	0.520233154296875	9.843658447265625	-0.052734375	-6.595500931680478	0	-16.619873	-33.358765	22.918701	141.28857	-100.099365	5.4631243
1448135016575	1.124847412109375	11.287353515625	-0.834686279296875	-6.4040252912775735	0	-16.43982	-32.998657	23.399353	140.92505	-102.08285	5.86421
1448135016615	1.137939453125	12.26806640625	-2.87109375	-6.560847065875931	0	-16.799927	-31.858826	24.299622	140.43427	-103.43196	6.268473
1448135016655	0.70233154296875	10.982666015625	-2.931793212890625	-6.848018524748198	0	-17.03949	-30.358887	25.979614	139.26099	-107.62108	6.2075896
1448135016696	0.24053955078125	9.36639404296875	-2.156982421875	-7.077140131843848	0	-17.03949	-29.039001	27.059937	139.13965	-109.96417	5.2465262
1448135016736	0.3428955078125	9.079559326171875	-3.02105712890625	-7.27650164122457	0	-16.859436	-27.89917	28.318787	138.7326	-112.42468	4.487251
1448135016776	0.296478271484375	8.108367919921875	-3.44000244140625	-7.578407066253014	0	-16.799927	-27.418518	28.559875	138.29657	-114.69014	4.158923
1448135016816	0.332183837890625	7.568023681640625	-3.493560791015625	-7.644279796582065	0	-16.97998	-26.399231	29.278564	138.2038	-115.59897	4.07641
1448135016857	-0.143890380859375	7.546600341796875	-4.3516845703125	-8.059881536530572	0	-16.679382	-25.019836	30.419922	138.16376	-117.44071	3.8808153
1448135016897	-0.146270751953125	7.51922607421875	-4.39691162109375	-8.08147864161043	0	-16.799927	-24.35913	30.659485	138.22498	-118.044365	3.6665943
1448135016937	-0.220062255859375	7.612060546875	-4.23980712890625	-8.031158882387428	0	-16.558838	-23.878479	31.318665	138.35657	-118.03468	3.5007575
1448135016977	0.072723388671875	7.80010986328125	-3.832763671875	-7.796607567158989	0	-16.43982	-23.638916	31.439209	138.57904	-117.39504	3.4811687
1448135017018	0.139373779296875	7.884613037109375	-3.867279052734375	-7.767799430137446	0	-16.558838	-23.878479	31.318665	138.69342	-116.860725	3.5327694
1448135017058	0.19769287109375	8.183349609375	-3.46142578125	-7.588579103069867	0	-16.558838	-24.598694	30.718994	139.03589	-115.29376	3.6648173
1448135017098	0.43572998046875	10.274505615234375	-1.66424560546875	-6.798944768721924	0	-16.319275	-26.098633	29.458618	140.03925	-111.700905	3.9179175
1448135017139	0.067962646484375	10.538726806640625	-2.793731689453125	-7.011433142069713	0	-16.19873	-26.759338	28.979492	140.4638	-108.93709	4.1514897
1448135017179	0.0858154296875	10.59228515625	-2.86871337890625	-7.012071916936376	0	-16.259766	-27.89917	27.83966	140.78918	-106.06153	4.550169
1448135017219	0.18341064453125	10.643463134765625	-2.04510498046875	-6.875095355210592	0	-15.899658	-29.219055	26.638794	141.16452	-104.67128	4.805992
1448135017259	0.42620849609375	11.160003662109375	-1.5904541015625	-6.644993121110623	0	-16.259766	-31.3797	25.019836	142.13971	-101.58645	5.5812187
1448135017300	1.215301513671875	11.188568115234375	-0.917999267578125	-6.417518950315864	0	-16.43982	-32.339478	24.41864	142.49023	-100.059944	6.012394
1448135017340	0.077484130859375	11.812225341796875	-1.039398193359375	-6.512618931551537	0	-16.558838	-32.63855	24.238586	142.48654	-98.97204	6.194864
1448135017380	-0.291473388671875	10.52325439453125	-1.722564697265625	-6.88954389690672	0	-16.679382	-33.059692	24.058533	142.41705	-98.77728	6.248369
1448135017420	-0.08319091796875	9.938873291015625	-1.715423583984375	-6.953486124063307	0	-16.319275	-32.818604	24.119568	142.29416	-99.7403	5.512778
1448135017461	-0.079620361328125	8.76416015625	-0.5906982421875	-6.961632240475408	0	-16.19873	-32.939148	24.179077	142.29541	-100.35467	4.9270287
1448135017501	0.59521484375	10.169769287109375	-0.58355712890625	-6.615765155957908	0	-16.259766	-32.939148	24.299622	142.25897	-101.00645	4.9528484
1448135017541	0.503570556640625	11.117156982421875	-1.1905517578125	-6.577021733221192	0	-16.139221	-32.818604	24.41864	142.0603	-102.24046	5.059737
1448135017581	0.50714111328125	11.21356201171875	-2.427154541015625	-6.758067798434077	0	-16.079712	-32.51953	24.899292	141.85278	-103.03359	5.1513233
1448135017622	-0.24505615234375	10.70416259765625	-4.091033935546875	-7.28309598578373	0	-16.19873	-31.318665	25.79956	140.83136	-105.80118	5.0730057
1448135017662	0.008453369140625	10.238800048828125	-2.372406005859375	-7.000384147270674	0	-15.59906	-30.299377	26.098633	140.81494	-108.469574	4.3247156
1448135017702	0.12628173828125	10.222137451171875	-2.486663818359375	-7.0027178036347975	0	-15.299988	-29.278564	27.359009	140.72504	-111.16625	3.640553
1448135017743	0.025115966796875	8.753448486328125	-3.188873291015625	-7.442347229649634	0	-15.238953	-28.619385	27.778625	140.15323	-113.385666	2.9875941
1448135017783	0.020355224609375	8.505889892578125	-3.5423583984375	-7.574137969247852	0	-15.119934	-27.539063	28.678894	139.80933	-114.30344	2.667124
1448135017823	-0.350982666015625	8.141693115234375	-4.2469482421875	-7.924111698036014	0	-15.058899	-25.738525	30.299377	138.81363	-116.7135	2.1667655
1448135017863	-0.027252197265625	7.1502685546875	-4.1279296875	-8.075968129866471	0	-15.119934	-25.019836	30.299377	138.28796	-117.59461	2.202146
1448135017904	-0.1474609375	7.383544921875	-4.213623046875	-8.068077369287359	0	-15.238953	-24.299622	30.778503	138.117	-117.77633	2.0878568
1448135017944	-0.41644287109375	7.915557861328125	-3.812530517578125	-7.886551960846747	0	-15.179443	-24.299622	30.718994	138.2396	-117.40007	1.9386853
1448135017984	-0.143890380859375	8.069091796875	-3.783966064453125	-7.835773961650217	0	-14.99939	-24.719238	30.659485	138.32626	-116.99675	1.9480207
1448135018024	0.00250244140625	8.941497802734375	-3.305511474609375	-7.432049775319282	0	-14.99939	-25.079346	30.718994	138.74707	-115.03553	2.2674546
1448135018065	-0.098663330078125	9.196197509765625	-3.053192138671875	-7.348075637498049	0	-14.759827	-26.098633	29.99878	139.21979	-113.006	2.6454065
1448135018105	0.594024658203125	9.591339111328125	-2.622344970703125	-7.0565056745580295	0	-15.058899	-26.69983	29.399109	140.04633	-110.65736	3.0298991
1448135018145	0.460723876953125	10.048370361328125	-3.099609375	-7.0845631039823775	0	-15.179443	-27.119446	28.858948	140.97711	-108.34016	3.446883
1448135018185	0.051300048828125	9.90673828125	-2.26885986328125	-7.033663205408952	0	-15.238953	-28.199768	27.659607	141.80017	-105.9942	3.9533768
1448135018226	0.351226806640625	11.062408447265625	-1.37860107421875	-6.638787792862793	0	-15.478516	-30.239868	26.519775	142.7742	-103.76677	4.564142
1448135018266	0.6285400390625	11.517059326171875	-1.544036865234375	-6.550595930592223	0	-15.299988	-31.318665	25.91858	143.4903	-101.77646	5.338781
1448135018306	0.82135009765625	11.636077880859375	-0.59783935546875	-6.36282465554925	0	-15.359497	-32.27997	25.19989	143.95691	-100.06211	5.9481363
1448135018346	-0.062957763671875	11.87530517578125	-1.72613525390625	-6.630720254448678	0	-15.658569	-32.57904	24.778748	144.00616	-99.55662	6.1327085
1448135018387	-0.196258544921875	10.388763427734375	-2.167694091796875	-6.806076160643466	0	-15.779114	-32.699585	24.238586	143.84958	-99.42448	6.312339
1448135018427	-0.450958251953125	9.136688232421875	-1.24053955078125	-7.078012374563078	0	-15.7196045	-32.998657	23.939514	143.72717	-100.43498	5.472415
1448135018467	0.458343505859375	9.203338623046875	-0.641876220703125	-6.803300829387267	0	-15.779114	-32.87964	24.119568	143.70169	-100.96506	4.910505
1448135018507	0.632110595703125	10.54229736328125	-0.703765869140625	-6.570762845592542	0	-15.478516	-32.87964	24.35913	143.68439	-101.25197	4.9762206
1448135018548	0.49761962890625	11.1112060546875	-1.101287841796875	-6.565066745227364	0	-15.238953	-32.759094	24.598694	143.65305	-101.34978	5.077075
1448135018588	0.263153076171875	11.3873291015625	-1.470245361328125	-6.615951662058908	0	-14.759827	-32.27997	24.899292	143.09009	-102.276825	5.324291
1448135018628	-0.2379150390625	11.98956298828125	-3.491180419921875	-6.932497091387145	0	-14.99939	-31.739807	25.559998	142.43945	-104.00712	5.171818
1448135018668	0.027496337890625	10.48040771484375	-3.261474609375	-7.1146807138104275	0	-14.819336	-31.259155	26.219177	141.94873	-106.60006	4.327267
1448135018708	-0.067718505859375	9.763916015625	-2.705657958984375	-7.1626371502645405	0	-14.878845	-30.53894	26.579285	141.89694	-109.62357	3.0977874
1448135018749	0.156036376953125	9.453277587890625	-2.04986572265625	-7.05715492104543	0	-14.878845	-29.458618	27.95868	141.8516	-110.93952	2.575842
1448135018789	-0.1474609375	8.715362548828125	-3.255523681640625	-7.501740366597675	0	-14.518738	-27.479553	29.3396	141.0285	-113.97838	1.6719569
1448135018829	-0.271240234375	8.417816162109375	-3.88275146484375	-7.741696984628424	0	-14.399719	-26.339722	30.178833	140.19064	-115.606606	1.2806698
1448135018870	-0.4093017578125	7.670379638671875	-3.900604248046875	-7.973440532628843	0	-14.579773	-25.619507	30.839539	139.4418	-116.59942	1.1325413
1448135018910	-0.096282958984375	7.215728759765625	-4.58734130859375	-8.21534122400299	0	-14.579773	-25.2594	30.899048	139.18329	-116.89386	1.192533
1448135018950	-0.34979248046875	6.970550537109375	-4.34454345703125	-8.29788710497677	0	-14.819336	-25.138855	31.079102	138.9484	-117.12523	1.2608862
1448135018990	-0.40216064453125	7.63824462890625	-3.262664794921875	-7.813256279149748	0	-14.819336	-24.958801	31.259155	139.4444	-116.12951	1.1653019
1448135019030	-0.179595947265625	8.5023193359375	-3.3614501953125	-7.579208432861574	0	-14.639282	-25.318909	30.718994	139.84247	-114.64681	1.5105842
1448135019071	0.1334228515625	8.7784423828125	-2.575927734375	-7.289471179299716	0	-14.6987915	-25.91858	30.239868	140.56882	-112.481	2.0519319
1448135019111	0.236968994140625	9.002197265625	-2.53070068359375	-7.216529426410956	0	-14.759827	-26.339722	29.699707	141.32227	-109.95173	2.6686747
1448135019151	0.17626953125	9.5687255859375	-2.305755615234375	-7.090472268556645	0	-14.639282	-27.659607	28.379822	141.64035	-108.64357	3.0348954
1448135019192	0.00726318359375	11.274261474609375	-2.12603759765625	-6.780796460351915	0	-15.119934	-29.818726	26.818848	142.64304	-104.52121	4.3303065
1448135019232	0.401214599609375	11.340911865234375	-1.439300537109375	-6.596798459758863	0	-15.179443	-30.718994	25.619507	143.07669	-101.832726	5.272956
1448135019272	1.062957763671875	12.055023193359375	-0.211029052734375	-6.213975346032252	0	-15.539551	-31.678772	25.079346	143.63269	-99.56986	6.18974
1448135019312	-0.19268798828125	12.571563720703125	-2.346221923828125	-6.639163527299441	0	-15.838623	-31.91986	24.659729	143.7323	-98.784874	6.607128
1448135019353	-0.179595947265625	11.34686279296875	-2.25933837890625	-6.821984703718606	0	-16.43982	-32.63855	23.638916	143.2121	-98.63007	7.1639295
1448135019393	-0.099853515625	9.648468017578125	-0.979888916015625	-6.879361440207255	0	-16.499329	-32.939148	23.579407	143.19739	-99.48681	6.4128666
1448135019433	0.158416748046875	8.25714111328125	0.22576904296875	-6.866986606321015	0	-16.378784	-32.87964	23.278809	143.18158	-99.683556	5.577091
1448135019473	0.833251953125	9.924591064453125	-0.837066650390625	-6.656873604392359	0	-16.619873	-32.63855	23.2193	142.90625	-99.482994	5.7684145
1448135019514	1.012969970703125	11.081451416015625	-1.185791015625	-6.50377842275824	0	-16.619873	-32.63855	23.519897	142.63232	-99.323746	6.4565687
1448135019554	0.68804931640625	11.4349365234375	-0.777557373046875	-6.4383024379077085	0	-16.378784	-32.699585	23.519897	142.4635	-99.409355	7.047365
1448135019594	0.39764404296875	12.202606201171875	-1.034637451171875	-6.405774689436584	0	-16.97998	-32.759094	23.81897	142.14288	-100.17562	7.3829203
1448135019634	-0.010589599609375	10.641082763671875	-2.329559326171875	-6.9254658764488894	0	-16.918945	-32.099915	24.119568	141.69315	-102.10284	7.178446
1448135019675	0.310760498046875	9.362823486328125	-2.486663818359375	-7.125756818085842	0	-16.738892	-31.739807	24.238586	141.29364	-104.84138	6.8444543
1448135019715	0.7332763671875	8.8355712890625	-2.627105712890625	-7.171881429951316	0	-17.158508	-30.659485	25.19989	140.8877	-106.39958	6.8909903
1448135019755	1.10699462890625	8.61895751953125	-2.33074951171875	-7.0871878141188756	0	-17.63916	-28.678894	26.759338	140.37231	-110.50276	7.8064137
1448135019795	1.627105712890625	8.7403564453125	-2.8282470703125	-7.060836884235891	0	-18.23883	-27.598572	27.89917	139.81665	-112.18786	8.53131
1448135019836	1.312896728515625	9.192626953125	-4.099365234375	-7.2755609945191235	0	-18.959045	-26.759338	28.559875	139.27649	-113.41391	8.930233
1448135019876	1.45928955078125	8.630859375	-3.84466552734375	-7.307503483569011	0	-19.1391	-26.519775	28.439331	138.97528	-114.15567	9.218503
1448135019916	0.874908447265625	7.746551513671875	-3.067474365234375	-7.449910458354108	0	-19.918823	-25.738525	28.678894	138.73102	-114.26976	9.267495
1448135019956	1.370025634765625	7.80963134765625	-2.94488525390625	-7.3096475117624635	0	-19.378662	-25.91858	28.379822	138.86594	-113.900085	9.070127
1448135019997	1.103424072265625	8.060760498046875	-2.762786865234375	-7.27650164122457	0	-19.439697	-25.979614	28.138733	139.09875	-112.90744	8.672909
1448135020037	0.94512939453125	8.49517822265625	-2.986541748046875	-7.266173683583673	0	-19.018555	-26.638794	28.019714	139.4909	-111.25099	8.198152
1448135020079	1.036773681640625	9.34735107421875	-2.198638916015625	-6.94557119206329	0	-18.47992	-26.998901	27.659607	139.83545	-110.21405	7.967238
1448135020120	1.222442626953125	9.50445556640625	-2.13079833984375	-6.874689385142236	0	-18.179321	-27.778625	27.059937	140.84485	-107.85617	7.542909
1448135020160	0.515472412109375	10.100738525390625	-1.6380615234375	-6.810243977418153	0	-17.279053	-29.458618	26.039124	142.41122	-103.85004	7.187203
1448135020200	0.7808837890625	10.49945068359375	-0.9525146484375	-6.592907447153858	0	-16.799927	-30.899048	25.019836	143.21051	-100.91658	7.4451294
1448135020240	0.479766845703125	11.06121826171875	-0.634735107421875	-6.5041387965942725	0	-16.558838	-32.099915	23.878479	143.78503	-98.04579	7.9208574
1448135020281	1.26885986328125	11.293304443359375	-0.157470703125	-6.284570243806048	0	-16.43982	-32.818604	23.2193	144.05176	-95.65093	8.5262375
1448135020321	1.672332763671875	12.271636962890625	-0.258636474609375	-6.107230695381559	0	-16.619873	-34.439087	21.539307	144.22714	-94.23867	8.999396
1448135020361	0.5523681640625	10.631561279296875	-0.30743408203125	-6.508646792125739	0	-16.918945	-34.858704	20.579529	144.6911	-94.028206	9.217837
1448135020402	0.64520263671875	10.019805908203125	-1.1239013671875	-6.717731731890403	0	-16.918945	-35.1593	20.399475	145.16467	-94.892136	8.8314085
1448135020442	0.12152099609375	9.01885986328125	0.4376220703125	-6.711765120771788	0	-17.158508	-35.21881	20.27893	145.94928	-95.53877	7.7628446
1448135020482	-0.0379638671875	9.136688232421875	1.493316650390625	-6.552058401613984	0	-16.499329	-35.339355	20.159912	146.75641	-95.335304	6.598976
1448135020522	0.00726318359375	10.645843505859375	0.2852783203125	-6.499277062975914	0	-15.539551	-35.038757	20.999146	147.14844	-95.25174	5.7603235
1448135020563	-0.16412353515625	10.2352294921875	-0.728759765625	-6.750074817475529	0	-14.639282	-35.1593	21.1792	147.10461	-95.1482	4.8853626
1448135020603	-0.691375732421875	9.7734375	-0.98583984375	-6.961213923589959	0	-13.978577	-35.639954	21.238708	147.05981	-94.85152	3.90725
1448135020643	-0.191497802734375	11.14691162109375	-0.218170166015625	-6.529826640070486	0	-13.978577	-35.758972	21.359253	147.24829	-94.76478	3.4804883
1448135020684	-0.139129638671875	10.61370849609375	-0.25506591796875	-6.60980270591751	0	-13.499451	-35.939026	21.1792	147.35657	-94.70305	3.351415
1448135020724	-0.058197021484375	9.746063232421875	0.052001953125	-6.685723814685609	0	-12.95929	-36.479187	20.878601	147.9898	-94.51036	2.93467
1448135020764	-0.31646728515625	9.74249267578125	0.71136474609375	-6.622673157762768	0	-12.599182	-36.479187	21.1792	148.49152	-94.50219	2.8532221
1448135020804	-0.29266357421875	9.693695068359375	0.33050537109375	-6.687058869443396	0	-11.999512	-36.538696	21.058655	148.51764	-94.61109	2.993359
1448135020845	-0.091522216796875	10.0447998046875	0.355499267578125	-6.595871600482415	0	-11.938477	-36.358643	20.878601	148.09732	-94.8418	3.4993086
1448135020885	0.101287841796875	10.58038330078125	0.619720458984375	-6.444845755329146	0	-11.999512	-36.17859	20.939636	147.86774	-95.06514	3.8130677
1448135020925	0.344085693359375	10.94219970703125	0.432861328125	-6.38327607017454	0	-12.11853	-35.51941	21.238708	147.50327	-96.469284	4.554368
1448135020965	-0.43310546875	10.924346923828125	-2.239105224609375	-6.933946830808015	0	-12.719727	-34.858704	21.958923	147.05508	-98.35757	4.7872376
1448135021006	-0.067718505859375	11.229034423828125	-3.17578125	-6.98073116582373	0	-12.419128	-34.01947	23.039246	146.85126	-101.05708	4.6393633
1448135021046	-0.058197021484375	10.8017578125	-1.246490478515625	-6.7248682932318715	0	-12.719727	-33.4198	23.519897	147.12949	-104.234955	3.8667703
1448135021086	-0.091522216796875	9.97100830078125	-2.0093994140625	-7.001232524976117	0	-12.779236	-32.159424	24.719238	147.07425	-105.96664	3.4887514
1448135021126	-0.24267578125	9.25927734375	-2.46881103515625	-7.247734914196578	0	-12.539673	-29.87976	27.359009	145.73242	-110.830055	2.7109466
1448135021167	0.3143310546875	9.210479736328125	-3.319793701171875	-7.315612828245847	0	-12.779236	-28.559875	28.619385	144.89569	-113.489105	2.37623
1448135021207	0.53094482421875	8.76416015625	-3.93511962890625	-7.491435783024777	0	-13.018799	-27.479553	30.059814	144.13284	-115.75865	2.3187065
1448135021247	0.465484619140625	8.25714111328125	-3.850616455078125	-7.599337152638193	0	-13.079834	-26.879883	30.419922	143.53375	-117.34821	2.5146997
1448135021288	0.3857421875	8.006011962890625	-4.057708740234375	-7.67728166258982	0	-13.55896	-26.098633	30.958557	143.21765	-117.8799	2.6962438
1448135021329	-0.048675537109375	7.43115234375	-3.598297119140625	-7.86130318781426	0	-13.798523	-25.498962	31.259155	142.55463	-118.18436	2.9020169
1448135021369	0.151275634765625	7.74774169921875	-2.8282470703125	-7.554762913603234	0	-13.619995	-25.318909	31.13861	142.68787	-117.47394	2.811341
1448135021409	0.289337158203125	8.221435546875	-3.5423583984375	-7.5776059877512845	0	-13.679504	-25.379944	31.13861	142.81403	-116.185875	2.8789
1448135021449	0.3857421875	8.80224609375	-3.093658447265625	-7.337930351386728	0	-13.798523	-25.498962	31.079102	143.30481	-114.01992	3.089078
1448135021490	0.425018310546875	9.04266357421875	-2.415252685546875	-7.150958985250689	0	-13.739014	-26.098633	30.53894	143.8323	-112.53342	3.1691828
1448135021530	0.39764404296875	10.4637451171875	-1.375030517578125	-6.726606713874505	0	-13.619995	-28.019714	28.979492	145.93011	-107.4169	3.6143632
1448135021570	0.48095703125	11.50634765625	-0.75018310546875	-6.454418384688674	0	-13.439941	-29.638672	27.539063	147.1698	-103.98148	4.3440204
1448135021611	0.77850341796875	11.73724365234375	-0.913238525390625	-6.40035447964744	0	-13.139343	-30.419922	26.638794	147.86914	-100.730194	5.256248
1448135021651	0.71185302734375	12.576324462890625	-1.241729736328125	-6.335800703885882	0	-13.139343	-32.218933	25.2594	147.69379	-97.805916	6.2082033
1448135021691	0.836822509765625	11.388519287109375	-1.170318603515625	-6.481690498470766	0	-13.919067	-33.779907	23.039246	147.49542	-96.226006	7.063324
1448135021731	-0.579498291015625	9.5972900390625	-2.81634521484375	-7.316329626485684	0	-14.099121	-34.379578	22.619629	147.59668	-96.87999	7.147147
1448135021772	-0.381927490234375	8.422576904296875	-1.7332763671875	-7.295151603780201	0	-14.399719	-34.67865	22.198486	148.05371	-97.74084	6.7209215
1448135021812	0.522613525390625	10.510162353515625	-0.65020751953125	-6.584400695274266	0	-14.639282	-34.55963	22.37854	148.38849	-98.50252	6.6005116
1448135021852	0.4000244140625	11.30401611328125	-0.68353271484375	-6.4868849802279716	0	-14.759827	-34.13849	22.799683	148.5495	-99.00939	6.52992
1448135021893	0.338134765625	10.6827392578125	-0.64306640625	-6.585139521088688	0	-14.279175	-33.779907	23.638916	149.21323	-100.34195	5.837233
1448135021933	0.220306396484375	9.843658447265625	-0.8382568359375	-6.769214939160248	0	-13.978577	-33.1192	24.238586	149.49634	-100.78907	5.242119
1448135021973	-0.08319091796875	9.558013916015625	-0.6240234375	-6.831570662237618	0	-13.378906	-32.818604	24.35913	149.67853	-101.10188	4.608501
1448135022013	0.14532470703125	10.2542724609375	-0.546661376953125	-6.667661359150895	0	-12.95929	-32.699585	24.479675	149.82947	-101.820076	4.1952734
1448135022054	0.515472412109375	10.458984375	-0.156280517578125	-6.5175003861951435	0	-12.658691	-32.87964	24.778748	149.88794	-102.25687	4.0717254
1448135022094	0.31195068359375	10.195953369140625	-0.5478515625	-6.650644916315446	0	-12.359619	-32.57904	25.318909	150.0091	-103.924965	3.536514
1448135022134	-0.027252197265625	10.195953369140625	-2.065338134765625	-6.959959341766268	0	-12.059021	-32.03888	26.159668	149.73785	-105.783066	3.195188
1448135022174	0.0572509765625	10.750579833984375	-3.394775390625	-7.083907321800369	0	-11.579895	-30.899048	27.059937	149.20496	-108.52832	2.886632
1448135022215	0.020355224609375	11.074310302734375	-3.44952392578125	-7.0416150811329	0	-11.51886	-30.119324	27.479553	148.7045	-111.487785	2.649147
1448135022255	-0.05462646484375	10.36614990234375	-3.576873779296875	-7.211479644755734	0	-11.338806	-28.799438	28.619385	148.45605	-112.65356	2.5662212
1448135022295	0.02392578125	7.38116455078125	-4.270751953125	-8.036193724902034	0	-11.158752	-27.23999	30.358887	147.80035	-114.56023	1.8486248
1448135022335	-0.6044921875	7.631103515625	-4.519500732421875	-8.223214198717468	0	-11.158752	-26.638794	30.839539	147.70886	-115.17927	1.1455134
1448135022376	-0.827056884765625	8.051239013671875	-2.956787109375	-7.740832583389105	0	-10.85968	-26.519775	31.199646	147.68036	-115.23137	0.6048612
1448135022416	-0.6806640625	8.1976318359375	-2.729461669921875	-7.6185629565485815	0	-10.85968	-26.519775	31.079102	147.35706	-114.60578	0.44249567
1448135022456	-0.1807861328125	8.526123046875	-3.06866455078125	-7.5094991395062225	0	-10.739136	-26.579285	30.958557	146.81433	-114.05668	0.5189887
1448135022496	-0.279571533203125	9.097412109375	-2.290283203125	-7.251691513762797	0	-11.099243	-27.778625	30.419922	146.49823	-111.280655	0.97491324
1448135022538	0.048919677734375	10.748199462890625	-1.589263916015625	-6.7721552032357915	0	-11.399841	-28.559875	29.759216	146.36807	-108.74493	1.5869924
1448135022578	0.25482177734375	10.993377685546875	-1.12628173828125	-6.625103854377727	0	-11.639404	-29.638672	28.559875	146.13818	-106.13681	2.3573265
1448135022619	0.439300537109375	11.029083251953125	-1.108428955078125	-6.587911628320571	0	-11.878967	-30.358887	27.89917	145.93048	-104.97117	2.6624303
1448135022661	0.95465087890625	11.98956298828125	-0.1907958984375	-6.235407206443483	0	-12.239075	-31.318665	26.45874	145.61688	-102.86042	3.0286508
1448135022701	-0.158172607421875	11.409942626953125	-0.213409423828125	-6.484197165348078	0	-12.95929	-32.03888	24.778748	145.06561	-100.72764	3.4666262
1448135022741	-0.8377685546875	9.846038818359375	-2.541412353515625	-7.263598248102008	0	-13.319397	-32.458496	23.999023	144.32776	-100.68726	3.5643978
1448135022781	-0.741363525390625	9.062896728515625	-2.49261474609375	-7.392284681523299	0	-13.499451	-32.099915	23.878479	143.72351	-101.17196	3.0532348
1448135022822	-0.96392822265625	9.24737548828125	-1.863006591796875	-7.2727411495846646	0	-13.619995	-32.159424	23.939514	143.63712	-101.26473	2.7544737
1448135022862	-0.11651611328125	10.5018310546875	-1.865386962890625	-6.887708433237776	0	-13.55896	-32.159424	24.179077	143.81033	-101.7105	2.3334143
1448135022902	0.160797119140625	11.13739013671875	-1.808258056640625	-6.726027131324638	0	-13.139343	-32.159424	24.659729	143.9035	-102.473595	2.3241465
1448135022942	-0.09747314453125	10.755340576171875	-1.039398193359375	-6.7052342946564245	0	-12.838745	-32.57904	24.539185	143.85583	-103.139786	1.9308739
1448135022983	0.09771728515625	10.3875732421875	-0.589508056640625	-6.660843736284846	0	-12.599182	-32.27997	24.719238	143.60727	-103.89887	1.5876602
1448135023023	-0.103424072265625	10.355438232421875	-1.34051513671875	-6.821386603366938	0	-12.599182	-31.858826	24.899292	142.87756	-104.552315	1.503123
1448135023063	-0.481903076171875	10.12335205078125	-2.794921875	-7.190013081969304	0	-12.838745	-31.199646	25.679016	141.98157	-107.720245	1.3965415
1448135023104	-0.796112060546875	9.638946533203125	-3.6185302734375	-7.520926313924328	0	-13.319397	-29.759216	26.579285	141.18481	-110.26287	1.205607
1448135023144	-0.36883544921875	9.267608642578125	-3.679229736328125	-7.521967982139957	0	-13.198853	-28.858948	27.598572	140.87183	-112.65702	0.8653597
1448135023184	-0.479522705078125	9.516357421875	-3.99224853515625	-7.560584376358742	0	-12.95929	-28.379822	28.138733	140.72641	-114.85643	0.67532486
1448135023224	-0.5616455078125	8.8736572265625	-3.94940185546875	-7.717913842799438	0	-12.95929	-27.2995	29.09851	140.28485	-115.85739	0.6524235
1448135023265	-0.491424560546875	7.863189697265625	-3.712554931640625	-7.893693780375492	0	-12.599182	-26.219177	30.239868	139.78558	-117.66564	0.5384556
1448135023306	-0.424774169921875	8.084564208984375	-3.712554931640625	-7.819835014547046	0	-13.079834	-25.85907	30.659485	139.3659	-117.82513	0.6202889
1448135023347	-0.177215576171875	8.2642822265625	-3.8565673828125	-7.749782247359255	0	-13.259888	-25.318909	30.958557	139.1359	-117.5536	0.8865257
1448135023387	0.166748046875	7.76202392578125	-3.2947998046875	-7.653933707243793	0	-13.198853	-25.079346	30.958557	139.1842	-116.70454	1.0715193
1448135023427	-0.28076171875	9.46160888671875	-3.638763427734375	-7.452436934230261	0	-13.679504	-25.559998	30.599976	139.45978	-115.36854	1.1914141
1448135023468	-0.581878662109375	10.2733154296875	-3.45904541015625	-7.310124212530416	0	-13.55896	-25.979614	30.358887	139.96515	-113.70001	1.3069521
1448135023508	-0.50213623046875	9.922210693359375	-3.15911865234375	-7.3044097972882085	0	-13.798523	-26.998901	29.458618	140.73523	-111.425095	1.5965292
1448135023548	-0.715179443359375	10.222137451171875	-2.290283203125	-7.1202130575273594	0	-13.978577	-28.199768	28.73993	141.5141	-108.72235	2.0617535
1448135023589	-0.320037841796875	10.85650634765625	-2.39501953125	-6.95327755509312	0	-14.4592285	-29.159546	27.95868	141.88214	-106.25496	2.6948783
1448135023629	-0.01416015625	10.891021728515625	-1.2857666015625	-6.709650699365079	0	-14.6987915	-30.239868	26.579285	141.99548	-103.86867	3.195439
1448135023669	0.9237060546875	11.695587158203125	-0.4478759765625	-6.317844170721011	0	-14.759827	-31.13861	25.559998	142.0708	-101.77235	3.4708512
1448135023710	0.455963134765625	12.182373046875	-1.223876953125	-6.42807084835492	0	-14.759827	-32.03888	24.598694	141.69733	-100.38987	3.5121086
1448135023750	0.315521240234375	10.755340576171875	-1.8760986328125	-6.774313208881166	0	-14.878845	-32.51953	23.699951	140.95813	-100.09824	3.3545558
1448135023790	0.24053955078125	12.321624755859375	-1.263153076171875	-6.445199811020896	0	-14.518738	-32.759094	23.15979	140.40912	-100.81215	2.5808144
1448135023833	-0.788970947265625	10.78271484375	-1.6285400390625	-6.914333785174353	0	-14.279175	-32.939148	23.098755	140.00946	-101.710175	1.4159639
1448135023874	0.1524658203125	11.919342041015625	-0.7906494140625	-6.447856418351406	0	-13.919067	-32.818604	23.519897	139.27866	-102.40502	0.75856256
1448135023914	0.444061279296875	12.105010986328125	-1.22149658203125	-6.440953600926896	0	-13.739014	-32.398987	23.75946	138.65802	-103.416504	0.992705
1448135023954	-0.10223388671875	10.610137939453125	-1.7999267578125	-6.855671790957652	0	-14.338684	-32.099915	24.479675	137.9064	-104.861145	0.8812589
1448135023995	-1.567352294921875	5.649444580078125	-2.09271240234375	-8.396146213868565	0	-14.518738	-31.498718	24.958801	137.28491	-106.31393	-0.02001587
1448135024035	-0.83062744140625	7.189544677734375	-2.671142578125	-7.886242049459756	0	-14.579773	-30.839539	25.619507	136.84052	-108.37668	-0.9782927
1448135024075	-1.300750732421875	7.791778564453125	-3.19482421875	-7.991055009293008	0	-14.399719	-30.358887	26.579285	137.21661	-110.93894	-1.1877697
1448135024116	-1.4090576171875	8.5784912109375	-3.736358642578125	-7.953744109442972	0	-13.978577	-29.519653	27.539063	137.54968	-112.90203	-1.1820071
1448135024156	-1.803009033203125	8.7451171875	-4.2088623046875	-8.153346888825133	0	-13.798523	-28.979492	27.95868	137.77472	-114.36554	-1.2734827
1448135024196	-0.4569091796875	9.2735595703125	-3.564971923828125	-7.514945910309133	0	-13.919067	-27.89917	29.219055	137.94598	-114.924614	-1.2946768
1448135024236	-0.3712158203125	9.0926513671875	-4.057708740234375	-7.647033653105183	0	-14.039612	-26.519775	30.239868	138.29163	-116.04426	-0.8864847
1448135024277	-0.44024658203125	8.872467041015625	-3.794677734375	-7.653104533413321	0	-13.919067	-25.79956	30.718994	138.26828	-116.01731	-0.6819763
1448135024317	-0.404541015625	8.8070068359375	-3.624481201171875	-7.620739844559898	0	-14.099121	-25.979614	30.53894	138.35168	-115.56607	-0.63420963
1448135024357	-0.693756103515625	8.970062255859375	-3.395965576171875	-7.597450712112947	0	-14.15863	-26.278687	30.358887	138.58344	-114.79439	-0.7117291
1448135024398	-0.910369873046875	9.110504150390625	-3.453094482421875	-7.627829751689758	0	-13.978577	-26.879883	30.119324	138.85187	-113.59881	-0.8787606
1448135024438	-0.993682861328125	9.641326904296875	-3.207916259765625	-7.474277598786324	0	-13.679504	-27.539063	29.3396	139.32874	-112.043976	-1.1453726
1448135024478	-0.969879150390625	10.441131591796875	-2.838958740234375	-7.231276000738571	0	-13.079834	-28.079224	28.799438	140.24341	-110.149796	-1.4997224
1448135024518	-1.04486083984375	10.324493408203125	-2.77349853515625	-7.2558875439981225	0	-12.419128	-28.678894	28.079224	141.14044	-108.13859	-1.8309902
1448135024558	-1.04486083984375	10.129302978515625	-1.108428955078125	-6.982416368648499	0	-12.419128	-29.09851	27.539063	142.01996	-106.17857	-2.2627602
1448135024599	-0.64971923828125	10.65655517578125	-0.775177001953125	-6.768235483430786	0	-11.819458	-30.358887	26.519775	142.73718	-104.17308	-2.4203808
1448135024639	-0.634246826171875	10.6065673828125	-0.60498046875	-6.74598893554071	0	-11.399841	-31.439209	25.439453	143.29175	-101.58884	-1.8814919
1448135024679	-0.884185791015625	10.600616455078125	-1.253631591796875	-6.897510954909488	0	-11.219788	-32.27997	24.598694	143.26025	-101.15056	-1.7028458
1448135024719	-1.253143310546875	10.82794189453125	-1.322662353515625	-6.963306123461844	0	-11.158752	-32.339478	23.939514	143.31158	-101.06565	-1.5186793
1448135024760	-1.87322998046875	10.09002685546875	-1.57379150390625	-7.229197165537806	0	-10.618591	-32.63855	23.638916	143.07336	-101.887665	-1.8857733
1448135024800	-1.2852783203125	10.017425537109375	-1.696380615234375	-7.154098048716552	0	-10.379028	-32.218933	24.119568	142.63226	-103.20524	-2.5578797
1448135024841	-1.37335205078125	11.295684814453125	-2.389068603515625	-7.061920754595128	0	-10.319519	-31.619263	24.659729	141.77502	-105.113914	-2.5147095
1448135024881	-1.2091064453125	11.519439697265625	-2.353363037109375	-6.985789794607983	0	-10.198975	-31.079102	25.679016	140.73505	-107.359184	-2.238628
1448135024921	-1.02105712890625	10.293548583984375	-2.73541259765625	-7.249828821849347	0	-11.338806	-29.87976	26.638794	139.73212	-109.65018	-2.295002
1448135024962	-0.281951904296875	8.998626708984375	-3.19482421875	-7.456738177267118	0	-12.11853	-29.039001	27.778625	138.67194	-111.721	-2.0752964
1448135025002	-0.17364501953125	9.116455078125	-4.186248779296875	-7.625645786978351	0	-12.838745	-28.079224	28.559875	137.84317	-113.97395	-1.3301637
1448135025042	-0.629486083984375	8.2261962890625	-3.6566162109375	-7.821632999231316	0	-13.439941	-27.2995	29.039001	137.56024	-115.84448	-0.9365051
1448135025082	-0.677093505859375	8.18096923828125	-4.005340576171875	-7.936162843544322	0	-13.259888	-26.45874	29.519653	137.4498	-117.01548	-0.9582315
1448135025123	-0.779449462890625	8.4261474609375	-4.452850341796875	-8.01946607769591	0	-13.859558	-25.85907	29.759216	137.2963	-117.98552	-0.9575534
1448135025163	-0.76873779296875	8.646331787109375	-4.057708740234375	-7.852147326255698	0	-13.619995	-25.2594	30.239868	137.12381	-118.57331	-0.8544934
1448135025203	-0.71875	8.701080322265625	-4.13507080078125	-7.845156775870284	0	-13.798523	-25.138855	30.958557	136.99701	-118.7035	-0.8361302
1448135025244	-0.5711669921875	8.210723876953125	-4.069610595703125	-7.917169850705641	0	-13.798523	-25.19989	31.019592	136.96054	-118.54986	-1.0155964
1448135025284	-0.641387939453125	8.208343505859375	-3.9993896484375	-7.91779987347291	0	-13.499451	-25.439453	31.019592	137.11353	-117.917366	-1.2772828
1448135025325	-0.6663818359375	9.49969482421875	-3.626861572265625	-7.524835021739612	0	-13.679504	-25.679016	30.958557	137.54172	-116.77726	-1.5426277
1448135025365	-0.94964599609375	9.239044189453125	-3.850616455078125	-7.699758349974719	0	-13.198853	-26.098633	30.119324	138.05505	-115.32531	-1.7886031
1448135025405	-1.157928466796875	9.35687255859375	-2.94488525390625	-7.514426612603089	0	-12.89978	-26.759338	29.759216	138.66061	-113.33605	-2.1802375
1448135025446	-1.43048095703125	9.688934326171875	-2.8187255859375	-7.474277598786324	0	-12.239075	-27.659607	29.09851	139.37204	-111.14456	-2.61679
1448135025486	-1.36383056640625	9.9495849609375	-2.83538818359375	-7.408607879300371	0	-11.938477	-28.678894	28.199768	140.0188	-109.03267	-2.7886891
1448135025526	-1.06866455078125	9.7591552734375	-1.566650390625	-7.137547671544963	0	-11.819458	-29.93927	27.23999	140.74927	-106.609	-2.8003128
1448135025566	-0.955596923828125	10.72320556640625	-1.070343017578125	-6.857487315648993	0	-11.51886	-30.839539	25.738525	141.75699	-104.18766	-2.6307023
1448135025607	-0.684234619140625	11.45635986328125	-1.415496826171875	-6.747739359505119	0	-11.639404	-31.619263	24.839783	142.86984	-101.90789	-1.9382206
1448135025647	-0.72589111328125	11.545623779296875	-1.001312255859375	-6.673164120624733	0	-11.698914	-32.159424	23.878479	143.05264	-101.614075	-1.7781495
1448135025688	-1.31622314453125	11.19451904296875	-0.9287109375	-6.815014306603018	0	-11.878967	-32.218933	23.638916	143.12445	-101.63975	-1.6149181
1448135025728	-1.5233154296875	10.411376953125	-1.444061279296875	-7.078230478813285	0	-11.938477	-32.159424	23.81897	142.58551	-102.9426	-1.9813719
1448135025768	-1.15435791015625	8.939117431640625	-1.594024658203125	-7.3184812602125975	0	-11.878967	-31.858826	24.35913	141.68457	-104.73708	-2.5157332
1448135025809	-0.74017333984375	10.57086181640625	-3.34478759765625	-7.259856809392385	0	-11.938477	-31.318665	25.379944	140.672	-106.9187	-2.2124827
1448135025849	-0.619964599609375	11.1492919921875	-3.231719970703125	-7.10519158551044	0	-12.059021	-30.178833	26.219177	140.04346	-109.353424	-1.87045
1448135025889	-1.25433349609375	11.05169677734375	-3.112701416015625	-7.221128695724051	0	-12.779236	-29.3396	27.598572	139.48389	-111.61347	-1.9593759
1448135025930	-0.967498779296875	9.2926025390625	-4.031524658203125	-7.734504659152359	0	-13.079834	-28.019714	28.559875	138.25446	-113.849304	-1.9496849
1448135025970	-0.21649169921875	7.877471923828125	-3.38287353515625	-7.738241547155541	0	-13.198853	-27.059937	29.399109	137.76266	-116.832214	-1.8551818
1448135026010	-0.384307861328125	7.615631103515625	-4.08270263671875	-8.032164708007432	0	-13.259888	-26.45874	30.239868	137.56836	-117.51565	-1.7412663
1448135026050	-0.612823486328125	7.8548583984375	-4.5849609375	-8.17654663442899	0	-13.139343	-25.559998	30.659485	137.3103	-118.549675	-1.6871074
1448135026091	-1.034149169921875	8.089324951171875	-4.33502197265625	-8.15731112033284	0	-13.499451	-25.19989	31.019592	137.31787	-119.067635	-1.8422657
1448135026131	-1.04010009765625	8.40234375	-4.038665771484375	-7.983531739934191	0	-13.739014	-24.899292	30.958557	137.68674	-118.83396	-2.207691
1448135026171	-1.02105712890625	8.58087158203125	-4.3231201171875	-8.007518474349341	0	-13.55896	-24.958801	31.079102	137.96759	-118.06081	-2.356622
1448135026212	-1.01153564453125	8.498748779296875	-3.69232177734375	-7.858551910906233	0	-13.55896	-25.318909	30.958557	138.42285	-116.69721	-2.5931108
1448135026252	-1.00439453125	8.7403564453125	-3.388824462890625	-7.721620995028516	0	-12.719727	-25.318909	30.659485	138.75415	-115.7786	-2.7239234
1448135026292	-1.166259765625	9.59967041015625	-3.3424072265625	-7.550274797825288	0	-12.239075	-25.979614	30.299377	139.77222	-112.56937	-2.8783138
1448135026332	-1.103179931640625	9.577056884765625	-3.015106201171875	-7.470198760496578	0	-11.878967	-26.339722	29.759216	139.77222	-112.56937	-2.8783138
1448135026373	-1.0377197265625	10.26141357421875	-1.14056396484375	-6.963515428128719	0	-11.51886	-27.95868	28.559875	141.60492	-107.261856	-2.6821156
1448135026413	-1.017486572265625	11.23736572265625	-0.872772216796875	-6.7492961332583	0	-11.579895	-29.458618	27.719116	142.13373	-105.91872	-2.562821
1448135026453	-0.89727783203125	11.5682373046875	-0.8287353515625	-6.6693680798044666	0	-11.51886	-30.299377	26.69983	142.8559	-103.60306	-1.971508
1448135026493	-1.528076171875	11.688446044921875	-2.47357177734375	-7.0340924534452345	0	-11.639404	-30.839539	26.339722	142.90628	-102.47467	-1.2255062
1448135026534	-1.386444091796875	10.250701904296875	-2.03082275390625	-7.192516019215574	0	-11.639404	-31.318665	25.379944	142.474	-103.40739	-1.1480813
1448135026574	-1.60662841796875	9.2069091796875	-1.3238525390625	-7.3013199312938575	0	-11.399841	-31.439209	24.899292	141.85297	-104.63921	-1.8665137
1448135026614	-1.117462158203125	9.319976806640625	-1.4619140625	-7.210333336897478	0	-11.338806	-31.3797	25.019836	141.40625	-105.31542	-2.0541637
1448135026654	-0.781829833984375	10.455413818359375	-2.350982666015625	-7.100569453542814	0	-11.51886	-30.839539	25.679016	140.33374	-106.99034	-1.90819
1448135026695	-0.4759521484375	10.74224853515625	-2.794921875	-7.07321848405336	0	-12.179565	-30.239868	26.339722	138.77942	-108.88451	-1.6121765
1448135026735	-0.639007568359375	10.486358642578125	-3.6328125	-7.31370237389925	0	-12.539673	-29.458618	26.879883	137.82202	-111.66074	-1.67182
1448135026775	-0.72113037109375	9.865081787109375	-4.13031005859375	-7.567483799928668	0	-12.95929	-28.979492	27.659607	137.06915	-113.85082	-1.7194903
1448135026815	-0.505706787109375	9.3497314453125	-4.2755126953125	-7.669192232892697	0	-13.018799	-28.138733	28.138733	136.84186	-114.9945	-1.760323
1448135026856	-0.88775634765625	7.777496337890625	-3.88275146484375	-8.072532952452349	0	-13.259888	-26.998901	29.039001	136.53146	-116.88501	-1.978932
1448135026896	-0.85205078125	7.55255126953125	-3.755401611328125	-8.124797189513771	0	-13.439941	-26.159668	29.99878	136.354	-118.203514	-2.1741626
1448135026936	-0.94012451171875	8.19049072265625	-4.505218505859375	-8.149751272723389	0	-13.619995	-25.2594	30.53894	136.2355	-119.13377	-2.167155
1448135026977	-1.029388427734375	8.6451416015625	-4.3326416015625	-7.994664136823373	0	-13.798523	-24.899292	31.318665	136.23135	-119.51838	-2.0819993
1448135027017	-0.92108154296875	8.617767333984375	-4.145782470703125	-7.9222159307846765	0	-13.739014	-24.958801	31.318665	136.43076	-119.39136	-2.0894833
1448135027057	-0.7425537109375	8.49755859375	-4.191009521484375	-7.918745301849709	0	-14.039612	-24.839783	31.439209	136.75568	-118.93168	-2.105333
1448135027098	-0.862762451171875	8.846282958984375	-4.048187255859375	-7.822832561021044	0	-13.679504	-25.019836	31.13861	137.59598	-117.960144	-2.16243
1448135027138	-1.099609375	9.57110595703125	-3.52569580078125	-7.582684358333257	0	-13.439941	-25.379944	30.718994	138.41595	-115.63363	-2.2998607
1448135027178	-0.823486328125	9.741302490234375	-3.257904052734375	-7.4275430209902495	0	-12.89978	-25.979614	30.119324	138.88263	-114.66387	-2.3142211
1448135027218	-0.71636962890625	9.5592041015625	-3.514984130859375	-7.498386330991674	0	-12.359619	-26.998901	29.519653	139.7633	-112.58696	-2.2903967
1448135027259	-1.091278076171875	9.48779296875	-3.105560302734375	-7.506392489829722	0	-12.359619	-27.2995	29.399109	140.61096	-110.33782	-2.2839048
1448135027299	-0.842529296875	10.231658935546875	-1.7666015625	-7.04570737692103	0	-11.819458	-29.09851	27.778625	142.39423	-106.8959	-2.2120025
1448135027339	-0.924652099609375	10.591094970703125	-0.87396240234375	-6.841388292760532	0	-11.639404	-30.119324	26.759338	143.37762	-104.79439	-2.1445432
1448135027379	-0.7330322265625	11.160003662109375	-1.22149658203125	-6.772547453731951	0	-11.51886	-30.778503	25.679016	143.75821	-103.887764	-2.0220208
1448135027420	-0.72589111328125	11.676544189453125	-1.23577880859375	-6.689730694498383	0	-11.459351	-31.678772	24.778748	144.14111	-102.803085	-1.5588913
1448135027460	-1.541168212890625	10.99456787109375	-1.84039306640625	-7.047432264649922	0	-11.459351	-31.799316	24.659729	144.1695	-102.67989	-1.4592004
1448135027501	-1.584014892578125	9.855560302734375	-1.455963134765625	-7.195932982666953	0	-11.938477	-31.858826	24.598694	143.88678	-104.0414	-2.3152225
1448135027541	-1.567352294921875	9.33544921875	-1.912994384765625	-7.3868680852907485	0	-11.579895	-31.97937	24.958801	143.33026	-105.55807	-2.9881701
1448135027581	-1.460235595703125	9.474700927734375	-2.3331298828125	-7.423044787881189	0	-11.279297	-31.318665	25.91858	142.93268	-106.43435	-3.1480541
1448135027622	-1.19482421875	10.010284423828125	-2.5235595703125	-7.298233871468197	0	-10.739136	-30.899048	26.339722	142.04617	-108.23394	-3.2048182
1448135027663	-1.281707763671875	10.336395263671875	-2.486663818359375	-7.243784423014285	0	-10.438538	-29.99878	27.178955	141.10095	-110.00068	-3.296849
1448135027703	-0.87823486328125	9.4544677734375	-3.791107177734375	-7.61910697545755	0	-10.559082	-29.09851	28.019714	139.68372	-112.6666	-3.191241
1448135027743	-1.022247314453125	9.5830078125	-4.29931640625	-7.742273453206378	0	-10.919189	-28.199768	28.678894	138.79779	-114.55695	-2.9239037
1448135027783	-0.899658203125	9.350921630859375	-4.00177001953125	-7.697217766216107	0	-11.279297	-27.479553	29.399109	138.45166	-115.35459	-2.8237884
1448135027824	-0.879425048828125	8.15716552734375	-3.710174560546875	-7.91779987347291	0	-11.819458	-26.579285	29.87976	137.72296	-117.002266	-2.7502482
1448135027864	-0.8377685546875	8.460662841796875	-4.35406494140625	-7.998609583625199	0	-12.419128	-25.738525	30.239868	137.324	-117.8274	-2.609337
1448135027904	-0.834197998046875	8.446380615234375	-4.245758056640625	-7.971818116356367	0	-12.599182	-25.439453	30.419922	137.12927	-118.18714	-2.5290346
1448135027944	-0.915130615234375	8.515411376953125	-3.92083740234375	-7.888412480653937	0	-12.779236	-25.079346	30.53894	137.22256	-117.99688	-2.6580539
1448135027984	-0.9710693359375	8.60943603515625	-3.93035888671875	-7.880981187124513	0	-12.719727	-25.498962	30.599976	137.32205	-117.74082	-2.7142358
1448135028025	-0.962738037109375	8.570159912109375	-3.79229736328125	-7.853365628062328	0	-12.419128	-26.098633	30.479431	137.7912	-116.265335	-2.8666134
1448135028065	-1.210296630859375	9.2735595703125	-3.14483642578125	-7.58884741829214	0	-12.179565	-26.45874	30.059814	138.42151	-114.70722	-3.0461056
1448135028105	-1.23052978515625	9.467559814453125	-3.319793701171875	-7.589115765980511	0	-12.179565	-27.059937	29.759216	139.12463	-112.92013	-3.187492
1448135028145	-1.42333984375	9.915069580078125	-2.450958251953125	-7.348801903252628	0	-12.359619	-27.598572	29.278564	139.99695	-110.75846	-3.462561
1448135028185	-1.526885986328125	10.343536376953125	-2.105804443359375	-7.216069948588585	0	-12.239075	-28.678894	28.379822	140.42337	-109.645035	-3.5893903
1448135028226	-1.274566650390625	10.51611328125	-2.50213623046875	-7.210562557975978	0	-11.639404	-29.759216	27.359009	141.11401	-107.66082	-3.6011512
1448135028267	-1.226959228515625	10.303070068359375	-1.9998779296875	-7.146481034585811	0	-11.158752	-30.479431	26.759338	141.73569	-105.90253	-3.607984
1448135028307	-1.279327392578125	10.319732666015625	-1.034637451171875	-6.9771534424086346	0	-10.258484	-31.318665	25.79956	142.96136	-103.65055	-3.776723
1448135028347	-1.31622314453125	10.136444091796875	-1.42620849609375	-7.087406654323404	0	-9.719849	-31.97937	25.2594	143.33008	-103.04709	-3.7981143
1448135028387	-1.410247802734375	10.32330322265625	-1.472625732421875	-7.078884896199751	0	-9.539795	-32.27997	25.019836	143.81342	-102.325005	-3.850936
1448135028427	-1.57330322265625	10.438751220703125	-0.90966796875	-6.986000767691929	0	-9.359741	-32.458496	24.539185	144.00891	-102.98558	-4.134968
1448135028468	-1.584014892578125	9.965057373046875	-1.56903076171875	-7.196616912171651	0	-9.658813	-32.458496	24.659729	143.84311	-103.54502	-4.2456927
1448135028508	-1.24481201171875	9.767486572265625	-1.570220947265625	-7.169849421488401	0	-9.779358	-31.97937	24.899292	142.89478	-105.83813	-4.183022
1448135028548	-1.4185791015625	10.639892578125	-2.79254150390625	-7.271097688296015	0	-10.018921	-31.619263	25.498962	142.49133	-106.798454	-4.0525684
1448135028588	-1.65899658203125	10.555389404296875	-3.057952880859375	-7.390313605259871	0	-10.258484	-30.899048	26.399231	141.64774	-108.84156	-3.869657
1448135028629	-1.9375	9.936492919921875	-3.88275146484375	-7.777747749322754	0	-10.438538	-29.579163	27.479553	140.50867	-112.130035	-3.942453
1448135028669	-1.10675048828125	8.903411865234375	-3.680419921875	-7.777747749322754	0	-10.798645	-28.858948	28.379822	139.91501	-114.09713	-4.004193
1448135028709	-0.8282470703125	8.02386474609375	-3.786346435546875	-7.960178802051282	0	-11.219788	-27.719116	29.09851	139.37534	-115.689476	-3.9616303
1448135028749	-0.736602783203125	7.913177490234375	-4.013671875	-8.02814481866108	0	-11.579895	-26.879883	29.759216	139.10468	-116.28352	-3.94207
1448135028790	-0.9234619140625	8.370208740234375	-4.131500244140625	-7.9858181399104256	0	-11.51886	-26.45874	30.239868	138.66998	-117.08167	-3.9490373
1448135028830	-1.467376708984375	8.582061767578125	-3.941070556640625	-8.025135854429529	0	-11.579895	-26.339722	30.358887	138.36432	-117.42722	-4.118288
1448135028870	-1.2900390625	8.536834716796875	-3.929168701171875	-7.985164589911297	0	-11.51886	-25.979614	31.019592	138.11511	-117.17822	-4.4134393
1448135028911	-1.2947998046875	8.717742919921875	-3.629241943359375	-7.85885741642408	0	-11.158752	-26.098633	31.259155	138.19202	-116.49411	-4.6066995
1448135028951	-1.28289794921875	8.79510498046875	-3.69708251953125	-7.853365628062328	0	-11.158752	-26.45874	31.079102	138.28537	-116.03621	-4.663865
1448135028991	-1.126983642578125	8.967681884765625	-3.710174560546875	-7.774231017349304	0	-10.919189	-26.998901	30.839539	138.59747	-114.80589	-4.7252903
1448135029032	-1.353118896484375	9.246185302734375	-2.815155029296875	-7.553177852031908	0	-10.618591	-27.359009	30.299377	139.5716	-112.01838	-5.0160074
1448135029072	-1.5423583984375	10.16619873046875	-2.427154541015625	-7.3172856785420555	0	-10.319519	-28.439331	29.519653	140.41434	-109.851036	-5.126589
1448135029113	-1.479278564453125	10.50897216796875	-2.127227783203125	-7.179345573738146	0	-10.079956	-29.219055	28.73993	141.43286	-107.503716	-5.0241556
1448135029153	-1.331695556640625	10.6160888671875	-1.98797607421875	-7.105411884313103	0	-9.959412	-30.178833	27.95868	142.02951	-106.37315	-4.9223313
1448135029193	-1.193634033203125	10.36614990234375	-1.439300537109375	-7.025734067950911	0	-9.658813	-31.318665	27.23999	143.14453	-104.26901	-4.665383
1448135029234	-1.319793701171875	10.572052001953125	-1.17864990234375	-6.965190420506487	0	-9.779358	-31.91986	26.45874	143.99414	-101.99519	-4.07941
1448135029274	-1.8280029296875	11.25640869140625	-1.236968994140625	-6.944531383146426	0	-10.079956	-32.699585	25.738525	144.1553	-101.53375	-3.515765
1448135029315	-2.06365966796875	10.672027587890625	-2.30218505859375	-7.295388566980445	0	-9.959412	-32.998657	25.19989	143.98053	-102.13163	-3.3348446
1448135029355	-1.624481201171875	10.660125732421875	-2.041534423828125	-7.161962008247277	0	-10.018921	-33.17871	24.958801	143.75781	-102.778915	-3.4248705
1448135029395	-1.2662353515625	10.026947021484375	-1.170318603515625	-7.113575608893646	0	-10.319519	-32.939148	25.439453	143.16138	-104.24634	-3.756553
1448135029435	-1.3233642578125	10.74462890625	-3.407867431640625	-7.354377086642229	0	-10.198975	-32.27997	25.679016	141.6435	-107.20891	-3.5694382
1448135029475	-1.112701416015625	10.1209716796875	-2.631866455078125	-7.2814457851858325	0	-10.198975	-31.498718	26.638794	140.88037	-108.95565	-3.7193997
1448135029516	-1.0758056640625	9.622283935546875	-2.97821044921875	-7.446882257924557	0	-10.679626	-30.778503	27.479553	140.06177	-110.61029	-3.8195434
1448135029556	-1.0186767578125	9.325927734375	-3.295989990234375	-7.56801540559037	0	-10.978699	-30.119324	28.019714	139.66333	-111.49816	-3.7793188
1448135029596	-0.73779296875	8.74749755859375	-3.165069580078125	-7.605546840767896	0	-11.639404	-29.159546	28.73993	139.06573	-113.749916	-3.7006896
1448135029637	-1.048431396484375	8.353546142578125	-3.619720458984375	-7.8868619222640355	0	-12.11853	-28.439331	29.09851	138.87317	-114.79103	-3.7384033
1448135029677	-1.17816162109375	8.298797607421875	-3.929168701171875	-8.02013217628857	0	-12.419128	-27.479553	29.638672	138.71417	-115.59016	-3.770992
1448135029717	-1.405487060546875	8.891510009765625	-3.74945068359375	-7.873578462193191	0	-12.179565	-26.759338	29.818726	138.6893	-115.83507	-3.7756398
1448135029758	-1.489990234375	8.984344482421875	-3.757781982421875	-7.873578462193191	0	-11.759949	-26.638794	30.358887	138.75897	-116.04656	-3.8249955
1448135029798	-1.280517578125	8.468994140625	-3.680419921875	-7.93361931653714	0	-11.938477	-26.519775	30.358887	139.11209	-115.83249	-4.048108
1448135029838	-1.196014404296875	8.839141845703125	-3.572113037109375	-7.788924504709224	0	-11.639404	-26.818848	30.239868	139.48657	-115.26515	-4.11993
1448135029878	-1.143646240234375	8.924835205078125	-3.2567138671875	-7.679518643385672	0	-11.158752	-27.23999	30.299377	140.00723	-114.27201	-4.1344457
1448135029919	-1.10198974609375	9.1688232421875	-3.17816162109375	-7.595565881086408	0	-10.978699	-27.359009	29.87976	140.28955	-113.63592	-4.15014
1448135029959	-1.231719970703125	9.22119140625	-3.191253662109375	-7.6161165434458304	0	-10.319519	-27.778625	29.519653	140.95654	-112.15838	-4.2157297
1448135029999	-1.3138427734375	10.403045654296875	-2.3521728515625	-7.211021060861975	0	-10.018921	-28.318787	29.09851	142.2792	-109.25842	-4.134518
1448135030039	-1.274566650390625	10.75177001953125	-2.289093017578125	-7.125534847572237	0	-10.079956	-28.979492	27.95868	143.11047	-107.13825	-3.7162719
1448135030080	-1.084136962890625	10.414947509765625	-2.096282958984375	-7.11689228578817	0	-9.719849	-29.87976	27.059937	143.82819	-105.341446	-3.2096527
1448135030120	-1.27099609375	10.24713134765625	-2.042724609375	-7.173462965105832	0	-9.838867	-30.778503	26.339722	144.08026	-104.60021	-3.0250943
1448135030160	-1.186492919921875	10.072174072265625	-1.08343505859375	-7.013349904904683	0	-10.079956	-31.498718	25.318909	144.52191	-103.24625	-2.745909
1448135030201	-1.362640380859375	10.716064453125	-1.079864501953125	-6.930220405733537	0	-10.559082	-32.218933	25.318909	144.91937	-102.09441	-2.2751
1448135030241	-1.623291015625	10.4351806640625	-2.490234375	-7.292309787348027	0	-10.798645	-32.458496	24.778748	144.59546	-102.54661	-1.8905605
1448135030281	-1.541168212890625	10.28997802734375	-1.310760498046875	-7.079321261695782	0	-11.158752	-32.51953	24.659729	144.08871	-103.714134	-2.0867016
1448135030321	-1.686370849609375	10.098358154296875	-0.79302978515625	-7.046354083504288	0	-11.219788	-32.159424	25.079346	143.79477	-104.30971	-2.2815137
1448135030362	-1.14959716796875	10.83984375	-2.472381591796875	-7.119991545045245	0	-11.158752	-31.3797	25.679016	142.81262	-105.95449	-2.3006043
1448135030402	-0.8187255859375	10.46612548828125	-2.677093505859375	-7.166466216176843	0	-11.819458	-30.718994	26.638794	141.36285	-108.967255	-2.4941125
1448135030442	-1.029388427734375	9.93768310546875	-2.672332763671875	-7.309409195503375	0	-11.459351	-29.699707	27.23999	140.5766	-110.77152	-2.86326
1448135030482	-0.677093505859375	9.400909423828125	-3.548309326171875	-7.531626023929752	0	-11.698914	-29.159546	27.89917	139.7525	-112.60108	-2.8554943
1448135030523	-0.619964599609375	9.215240478515625	-3.43048095703125	-7.533981483426001	0	-11.819458	-28.318787	28.439331	139.45108	-113.46445	-2.7998612
1448135030563	-0.753265380859375	8.674896240234375	-3.526885986328125	-7.652828213074502	0	-11.698914	-27.659607	29.399109	139.07132	-114.94432	-2.709543
1448135030603	-1.08770751953125	8.17620849609375	-3.922027587890625	-8.02714126525174	0	-11.999512	-27.119446	30.059814	138.5824	-116.68664	-2.758389
1448135030643	-0.969879150390625	8.244049072265625	-3.7518310546875	-7.929810489376205	0	-12.179565	-26.45874	30.599976	138.45178	-117.4016	-2.7806847
1448135030684	-0.998443603515625	8.64752197265625	-4.137451171875	-7.932666383975775	0	-12.179565	-25.979614	30.778503	138.43445	-117.563644	-2.751101
1448135030724	-1.067474365234375	8.59515380859375	-4.18267822265625	-7.977665550463023	0	-12.11853	-25.79956	30.839539	138.41193	-117.59134	-2.6556063
1448135030764	-0.969879150390625	8.783203125	-3.7232666015625	-7.784210973861143	0	-12.359619	-25.679016	30.899048	138.82382	-116.991356	-2.6873922
1448135030805	-0.98773193359375	8.56658935546875	-3.83990478515625	-7.872962847709335	0	-12.059021	-25.79956	30.659485	139.25311	-116.06484	-2.739495
1448135030845	-0.896087646484375	9.173583984375	-3.394775390625	-7.596912024908126	0	-11.999512	-26.339722	30.599976	139.85913	-114.70932	-2.7651756
1448135030885	-1.065093994140625	9.5068359375	-3.445953369140625	-7.571473924312377	0	-11.878967	-26.818848	30.419922	140.18207	-113.94242	-2.7810745
1448135030925	-1.107940673828125	9.738922119140625	-2.922271728515625	-7.41730936954148	0	-11.338806	-27.598572	29.93927	140.9603	-112.11446	-2.821202
1448135030965	-1.1900634765625	9.786529541015625	-2.51641845703125	-7.340824745151766	0	-11.279297	-28.49884	29.3396	142.13428	-109.00051	-2.91477
1448135031006	-1.343597412109375	10.026947021484375	-1.4666748046875	-7.1202130575273594	0	-10.679626	-29.458618	28.138733	143.04517	-106.78647	-3.0674243
1448135031046	-0.88299560546875	10.424468994140625	-1.125091552734375	-6.9054998921206625	0	-10.618591	-30.419922	26.998901	143.93622	-104.7397	-2.7955208
1448135031086	-0.867523193359375	10.641082763671875	-1.70233154296875	-6.965609322904464	0	-10.919189	-31.13861	26.159668	144.17859	-103.981384	-2.495635
1448135031126	-1.119842529296875	10.817230224609375	-1.55474853515625	-6.95306900136756	0	-10.978699	-31.619263	25.439453	144.52216	-102.96228	-1.9438589
1448135031167	-1.49237060546875	10.944580078125	-1.718994140625	-7.025734067950911	0	-11.158752	-31.858826	25.379944	144.64105	-102.933685	-1.6881001
1448135031207	-1.522125244140625	10.760101318359375	-2.14508056640625	-7.1433509489699425	0	-11.639404	-31.739807	25.079346	143.98273	-104.95301	-1.7864419
1448135031247	-1.53521728515625	10.6160888671875	-2.56878662109375	-7.254721287964982	0	-11.579895	-31.559753	25.559998	143.08829	-107.1508	-2.0683508
1448135031287	-1.400726318359375	10.30426025390625	-2.87109375	-7.35049735850741	0	-11.399841	-30.718994	26.45874	142.57251	-108.49424	-2.2544024
1448135031328	-0.798492431640625	10.09478759765625	-3.548309326171875	-7.40910425655357	0	-11.51886	-29.87976	27.418518	141.45825	-111.20219	-2.4870722
1448135031368	-0.47119140625	9.120025634765625	-3.3900146484375	-7.513388369975827	0	-11.819458	-29.039001	28.678894	140.50266	-113.288635	-2.5573547
1448135031408	-0.550933837890625	9.122406005859375	-3.867279052734375	-7.637684806813697	0	-12.059021	-28.079224	29.458618	139.40305	-115.83239	-2.3842652
1448135031448	-0.43310546875	8.3642578125	-3.64947509765625	-7.737378589397995	0	-12.419128	-27.178955	29.818726	138.77661	-117.11053	-2.1230679
1448135031489	-0.46405029296875	7.9072265625	-3.76849365234375	-7.889653830388682	0	-12.599182	-26.159668	30.358887	138.5104	-117.54048	-1.9800203
1448135031529	-0.774688720703125	7.939361572265625	-4.145782470703125	-8.069104566665173	0	-12.89978	-25.679016	30.958557	138.05948	-118.06658	-1.7252746
1448135031569	-1.05438232421875	8.315460205078125	-4.233856201171875	-8.066708716129797	0	-13.259888	-25.2594	31.3797	137.79553	-118.06009	-1.5600644
1448135031609	-0.84014892578125	8.4356689453125	-4.18743896484375	-7.960501125430303	0	-13.439941	-25.318909	31.498718	137.89145	-117.5969	-1.5835913
1448135031650	-0.80682373046875	8.6546630859375	-4.013671875	-7.848496968883213	0	-13.619995	-25.439453	31.199646	138.1131	-116.79	-1.6773393
1448135031690	-0.848480224609375	8.893890380859375	-3.962493896484375	-7.785977259415893	0	-13.499451	-25.85907	30.899048	138.31772	-116.21796	-1.7752655
1448135031730	-0.796112060546875	9.600860595703125	-3.393585205078125	-7.480409266186857	0	-13.499451	-25.979614	30.53894	138.9607	-114.70321	-2.0212808
1448135031770	-0.622344970703125	8.905792236328125	-3.269805908203125	-7.567483799928668	0	-13.259888	-26.998901	29.93927	140.20618	-112.8868	-2.3429554
1448135031811	-0.929412841796875	9.75677490234375	-2.129608154296875	-7.218598086119332	0	-12.779236	-27.95868	29.278564	141.22476	-109.527306	-2.7680237
1448135031851	-1.024627685546875	10.71844482421875	-0.934661865234375	-6.847012989378839	0	-12.059021	-28.559875	28.318787	142.40063	-108.27305	-2.7824304
1448135031891	-0.5806884765625	10.88031005859375	-0.991790771484375	-6.755726221793685	0	-11.459351	-29.579163	27.479553	142.92844	-106.06633	-2.333332
1448135031931	-0.946075439453125	11.647979736328125	-2.09271240234375	-6.87245755381044	0	-11.158752	-30.059814	26.579285	143.61136	-104.60987	-1.5577141
1448135031972	-1.407867431640625	10.636322021484375	-2.888946533203125	-7.288762027325701	0	-11.219788	-30.419922	25.91858	143.88007	-104.01856	-1.0905381
1448135032012	-1.6756591796875	9.95672607421875	-2.60211181640625	-7.4235441722601205	0	-11.459351	-30.839539	25.318909	143.82513	-104.760544	-1.4818022
1448135032052	-1.572113037109375	9.550872802734375	-1.555938720703125	-7.2722714804663	0	-11.579895	-30.778503	25.679016	143.78848	-105.20713	-1.8733408
1448135032093	-1.11865234375	9.988861083984375	-1.6475830078125	-7.11910567769495	0	-11.639404	-30.53894	25.979614	143.54895	-106.198906	-2.3244302
1448135032133	-0.838958740234375	10.77081298828125	-2.160552978515625	-7.0188946228965925	0	-11.639404	-30.53894	26.278687	142.88815	-107.48405	-2.2861106
1448135032173	-0.796112060546875	10.681549072265625	-2.888946533203125	-7.161512009305621	0	-11.698914	-30.119324	27.479553	141.4032	-109.94517	-2.2142837
1448135032214	-0.6759033203125	9.954345703125	-3.353118896484375	-7.37240126400326	0	-11.698914	-29.93927	27.778625	140.3483	-111.97808	-2.2517145
1448135032254	-0.50927734375	9.636566162109375	-3.62567138671875	-7.461047307852448	0	-11.999512	-29.458618	28.49884	139.89532	-113.00403	-2.2477136
1448135032294	-0.829437255859375	8.908172607421875	-3.94940185546875	-7.7745238458921495	0	-11.938477	-28.73993	28.858948	139.13852	-114.91543	-2.3902707
1448135032334	-0.903228759765625	8.42852783203125	-3.781585693359375	-7.871732206349423	0	-12.298584	-28.019714	29.278564	138.6506	-116.46992	-2.6491518
1448135032375	-0.937744140625	8.6165771484375	-4.62542724609375	-8.059200285647627	0	-12.419128	-26.219177	30.178833	138.27548	-118.35754	-2.742357
1448135032415	-0.927032470703125	7.994110107421875	-4.10888671875	-8.08666078073417	0	-12.11853	-25.85907	30.839539	138.17596	-119.09917	-2.7324471
1448135032455	-1.0281982421875	7.603729248046875	-4.013671875	-8.206019127048128	0	-12.478638	-25.379944	31.559753	138.17175	-119.2275	-2.7744365
1448135032495	-1.12103271484375	8.29998779296875	-4.509979248046875	-8.172899957128566	0	-12.478638	-25.439453	32.159424	138.25348	-119.21198	-2.8762226
1448135032536	-1.072235107421875	8.465423583984375	-4.10888671875	-7.994335737312987	0	-12.599182	-25.619507	32.27997	138.46783	-118.850555	-2.9887009
1448135032576	-1.122222900390625	8.677276611328125	-3.876800537109375	-7.888722742762685	0	-12.719727	-25.379944	31.858826	138.8169	-118.082375	-3.1455157
1448135032616	-1.166259765625	8.9974365234375	-3.8232421875	-7.804617340156888	0	-12.419128	-25.85907	31.318665	139.34125	-116.84341	-3.340107
1448135032656	-1.2138671875	9.070037841796875	-3.600677490234375	-7.7437153294324705	0	-12.179565	-26.579285	30.718994	140.07507	-115.128716	-3.541746
1448135032697	-1.191253662109375	9.191436767578125	-3.28765869140625	-7.635765042187108	0	-11.999512	-27.2995	30.119324	140.98822	-112.94918	-3.7036018
1448135032737	-1.229339599609375	10.176910400390625	-2.042724609375	-7.178892597832427	0	-11.459351	-28.439331	29.519653	142.01343	-110.37954	-3.7730532
1448135032777	-0.94012451171875	10.15667724609375	-1.2381591796875	-6.981994973684373	0	-11.039734	-29.278564	28.318787	143.51294	-106.209335	-3.43202
1448135032818	-0.955596923828125	10.611328125	-0.734710693359375	-6.819792254628279	0	-10.618591	-30.178833	26.759338	143.96552	-104.901596	-3.2363257
1448135032858	-0.705657958984375	11.259979248046875	-1.40478515625	-6.781779983401904	0	-10.079956	-31.439209	25.679016	144.50638	-103.092	-2.4529595
1448135032898	-1.779205322265625	11.51824951171875	-2.922271728515625	-7.195705045978007	0	-10.319519	-31.439209	25.318909	144.40588	-102.64523	-1.6294895
1448135032939	-1.386444091796875	10.4637451171875	-1.87847900390625	-7.123537939315533	0	-10.319519	-32.339478	24.719238	144.21329	-103.414696	-1.3890122
1448135032979	-1.641143798828125	9.6544189453125	-1.22149658203125	-7.200495902989843	0	-10.198975	-32.699585	25.019836	143.83905	-105.00768	-2.518099
1448135033020	-1.122222900390625	9.965057373046875	-1.560699462890625	-7.108056872724538	0	-10.379028	-32.159424	25.19989	143.83905	-105.00768	-2.518099
1448135033060	-1.12103271484375	11.0350341796875	-2.636627197265625	-7.1089391118270395	0	-10.258484	-31.498718	26.219177	142.525	-107.31155	-2.7410717
1448135033100	-1.153167724609375	10.73272705078125	-2.891326904296875	-7.220438283889617	0	-10.559082	-30.53894	27.059937	141.14758	-110.29532	-2.9723678
1448135033140	-0.972259521484375	9.41400146484375	-3.2662353515625	-7.531626023929752	0	-10.618591	-29.759216	28.199768	140.21619	-112.25218	-3.233133
1448135033180	-0.627105712890625	9.383056640625	-3.908935546875	-7.605006172596912	0	-10.679626	-28.919983	28.799438	139.40283	-114.3757	-3.1841366
1448135033221	-0.50213623046875	8.53802490234375	-3.526885986328125	-7.6831587633403	0	-11.039734	-27.95868	29.519653	139.10669	-115.29239	-3.1343844
1448135033261	-0.84967041015625	8.23095703125	-3.676849365234375	-7.881908529696415	0	-10.978699	-27.418518	29.87976	138.586	-117.10715	-3.1833236
1448135033301	-1.362640380859375	8.527313232421875	-4.09222412109375	-8.053759810345293	0	-11.459351	-26.519775	30.419922	138.29504	-118.18263	-3.1901069
1448135033341	-1.4090576171875	8.141693115234375	-4.29693603515625	-8.245927240293268	0	-11.459351	-26.159668	30.659485	138.15839	-118.97657	-3.265413
1448135033381	-1.48284912109375	7.554931640625	-4.493316650390625	-8.550110497799274	0	-11.579895	-25.85907	31.199646	138.06	-119.20529	-3.3520973
1448135033422	-1.405487060546875	8.025054931640625	-4.512359619140625	-8.354977372746923	0	-11.878967	-25.79956	31.678772	138.04562	-119.3026	-3.5513966
1448135033462	-1.324554443359375	8.394012451171875	-4.324310302734375	-8.149751272723389	0	-11.999512	-25.498962	31.619263	138.16281	-118.96919	-3.6851916
1448135033502	-1.131744384765625	8.77130126953125	-4.071990966796875	-7.91779987347291	0	-12.059021	-25.619507	31.97937	138.43964	-118.27793	-3.7765565
1448135033543	-1.03057861328125	9.239044189453125	-3.62091064453125	-7.664742177538241	0	-11.938477	-25.738525	31.619263	138.82062	-117.13226	-3.853723
1448135033584	-1.27099609375	9.30450439453125	-2.907989501953125	-7.542639134872662	0	-11.639404	-26.159668	31.019592	139.40372	-115.37185	-3.9953794
1448135033624	-1.257904052734375	9.344970703125	-2.793731689453125	-7.5058751227194715	0	-11.459351	-26.759338	30.059814	140.02676	-113.25574	-4.10053
1448135033664	-1.431671142578125	9.848419189453125	-2.817535400390625	-7.440334451401454	0	-11.459351	-27.598572	29.159546	140.55548	-111.14125	-4.0072618
1448135033704	-1.267425537109375	10.85174560546875	-2.2569580078125	-7.09968994228717	0	-11.338806	-28.799438	28.199768	141.36896	-107.97495	-3.566729
1448135033745	-1.203155517578125	10.94219970703125	-2.38311767578125	-7.0944188641479204	0	-11.279297	-29.519653	27.418518	141.60443	-107.07895	-3.4300592
1448135033785	-1.0758056640625	10.400665283203125	-2.37835693359375	-7.170978121667131	0	-10.739136	-30.479431	26.638794	142.02542	-105.73585	-3.3597894
1448135033825	-1.4090576171875	10.086456298828125	-2.176025390625	-7.256820932901121	0	-10.739136	-30.718994	25.91858	142.33682	-105.06126	-3.5611541
1448135033865	-1.6661376953125	10.345916748046875	-2.042724609375	-7.230351866888716	0	-10.679626	-31.019592	25.85907	142.44861	-105.086845	-3.7230968
1448135033906	-1.4566650390625	10.1781005859375	-1.8094482421875	-7.177534138389168	0	-10.739136	-31.199646	25.559998	142.02618	-106.2517	-4.0406184
1448135033946	-1.20672607421875	9.878173828125	-2.3807373046875	-7.298471125875157	0	-10.85968	-30.958557	26.098633	141.39734	-107.60396	-4.2908363
1448135033986	-1.07342529296875	10.13525390625	-2.81158447265625	-7.306551172351828	0	-10.739136	-30.839539	26.69983	141.0705	-108.41416	-4.3361154
1448135034026	-1.272186279296875	10.50897216796875	-2.78778076171875	-7.267110853153113	0	-10.978699	-30.059814	27.359009	140.3559	-110.29034	-4.318221
1448135034067	-1.365020751953125	10.586334228515625	-3.281707763671875	-7.369469368931853	0	-11.099243	-29.579163	27.778625	139.55621	-112.2945	-4.3431983
1448135034107	-1.3804931640625	8.6165771484375	-3.798248291015625	-7.952459850669487	0	-11.399841	-28.138733	28.919983	138.4787	-115.11531	-4.5249667
1448135034147	-1.150787353515625	8.39996337890625	-4.2279052734375	-8.06841970096508	0	-11.459351	-27.2995	29.638672	137.95422	-116.844444	-4.3506746
1448135034188	-1.15911865234375	7.996490478515625	-4.036285400390625	-8.132955346621856	0	-11.938477	-26.579285	30.059814	137.76599	-117.5209	-4.248599
1448135034228	-1.0472412109375	7.677520751953125	-4.207672119140625	-8.250127249877146	0	-12.419128	-25.85907	30.419922	137.4996	-118.39683	-4.139827
1448135034268	-1.22576904296875	8.12860107421875	-4.559967041015625	-8.275957981030713	0	-12.599182	-25.559998	30.839539	137.30865	-118.85971	-4.0128922
1448135034308	-1.167449951171875	8.596343994140625	-4.307647705078125	-8.039895062017818	0	-12.779236	-25.079346	30.778503	137.30396	-118.70428	-3.8925767
1448135034349	-1.032958984375	7.956024169921875	-4.357635498046875	-8.204904121407562	0	-12.478638	-25.439453	30.839539	137.37042	-118.08763	-3.8775203
1448135034389	-1.19244384765625	8.405914306640625	-3.77801513671875	-7.953101868825969	0	-11.999512	-25.738525	30.778503	137.48065	-117.53995	-3.9086325
1448135034429	-1.486419677734375	9.173583984375	-3.1614990234375	-7.679238892147568	0	-12.298584	-26.278687	30.718994	137.8971	-116.03588	-3.9806185
1448135034469	-1.562591552734375	10.49945068359375	-3.32098388671875	-7.4368162030808325	0	-11.999512	-26.69983	30.659485	138.34195	-114.35688	-3.8418455
1448135034510	-1.20672607421875	9.18548583984375	-3.11865234375	-7.602034867853753	0	-11.698914	-26.818848	30.119324	138.74469	-112.67597	-3.7725117
1448135034550	-1.369781494140625	9.712738037109375	-2.658050537109375	-7.4222959074272055	0	-11.698914	-27.598572	29.458618	139.76129	-109.87081	-3.9299936
1448135034590	-1.255523681640625	10.2685546875	-2.3759765625	-7.230351866888716	0	-11.338806	-28.799438	28.619385	140.21222	-108.92785	-3.884159
1448135034630	-1.286468505859375	10.8826904296875	-2.3616943359375	-7.11689228578817	0	-11.279297	-29.579163	28.138733	141.03229	-107.1571	-3.7926414
1448135034671	-1.4376220703125	10.71844482421875	-1.91180419921875	-7.0920063739322785	0	-11.279297	-29.99878	27.83966	141.77002	-105.6424	-3.9736161
1448135034711	-1.2471923828125	10.23284912109375	-1.642822265625	-7.096833502189487	0	-11.039734	-31.559753	26.759338	142.37405	-104.71548	-4.237497
1448135034751	-1.70660400390625	10.1114501953125	-1.88323974609375	-7.25285638614357	0	-10.798645	-31.739807	26.339722	142.77335	-104.4518	-4.447877
1448135034792	-1.756591796875	10.11859130859375	-1.890380859375	-7.262662372552395	0	-10.85968	-31.799316	25.79956	142.83041	-104.795845	-4.5940084
1448135034832	-1.76373291015625	10.049560546875	-1.863006591796875	-7.2722714804663	0	-10.85968	-31.498718	26.159668	142.5765	-105.67462	-4.6566772
1448135034872	-1.51617431640625	9.929351806640625	-2.73065185546875	-7.422795134922821	0	-10.919189	-31.318665	26.399231	141.89291	-107.16754	-4.6140127
1448135034913	-1.398345947265625	10.272125244140625	-3.852996826171875	-7.565889739680044	0	-10.499573	-30.239868	27.119446	141.05154	-109.25284	-4.5579004
1448135034953	-1.514984130859375	9.941253662109375	-3.30670166015625	-7.543953790117918	0	-10.379028	-29.759216	27.83966	140.11438	-112.39756	-4.6627145
1448135034993	-1.469757080078125	9.8543701171875	-3.19720458984375	-7.529011703738881	0	-10.319519	-29.09851	28.49884	139.8913	-113.324196	-4.7092667
1448135035033	-1.31622314453125	9.469940185546875	-3.591156005859375	-7.670584776468985	0	-10.618591	-28.559875	29.399109	139.39502	-115.15867	-4.6910534
1448135035074	-0.812774658203125	8.5880126953125	-4.260040283203125	-7.931713935753361	0	-11.039734	-27.539063	30.299377	138.64914	-117.42135	-4.382406
1448135035114	-0.8663330078125	8.270233154296875	-4.576629638671875	-8.125151068925225	0	-10.739136	-26.879883	31.199646	138.37866	-118.4319	-4.1503744
1448135035154	-1.0091552734375	8.160736083984375	-4.295745849609375	-8.116678415743056	0	-11.279297	-26.039124	31.3797	138.35428	-118.81355	-4.0836473
1448135035194	-0.89251708984375	7.906036376953125	-4.283843994140625	-8.154427099553818	0	-11.459351	-25.079346	31.3797	138.53677	-119.25178	-4.0812955
1448135035235	-1.236480712890625	8.7213134765625	-4.243377685546875	-8.006195857001822	0	-11.51886	-24.659729	31.3797	138.82324	-119.278625	-4.1406546
1448135035275	-1.242431640625	8.213104248046875	-4.179107666015625	-8.135802303866129	0	-11.878967	-24.35913	31.259155	139.10263	-119.00749	-4.184811
1448135035315	-1.279327392578125	8.601104736328125	-4.131500244140625	-8.020465318737308	0	-11.51886	-24.778748	31.318665	139.49173	-118.336555	-4.2890277
1448135035355	-1.35430908203125	9.465179443359375	-3.650665283203125	-7.694680238710523	0	-11.099243	-25.2594	31.3797	140.04718	-117.26764	-4.471988
1448135035396	-1.374542236328125	9.5115966796875	-3.53521728515625	-7.6614106940870865	0	-10.85968	-25.738525	31.13861	140.70096	-115.879555	-4.6751494
1448135035436	-1.23529052734375	9.29736328125	-3.4566650390625	-7.660578631317071	0	-10.919189	-26.159668	30.958557	141.43051	-114.12776	-4.851307
1448135035476	-1.52093505859375	10.08050537109375	-2.66876220703125	-7.379501298778981	0	-10.679626	-27.23999	30.239868	142.89447	-111.15406	-4.9167624
1448135035516	-1.329315185546875	10.067413330078125	-2.5616455078125	-7.321353002875016	0	-10.618591	-28.138733	29.579163	143.3789	-110.15913	-4.86963
1448135035557	-1.300750732421875	10.036468505859375	-1.9951171875	-7.210333336897478	0	-10.258484	-29.219055	28.979492	144.26633	-107.96823	-4.782022
1448135035598	-1.379302978515625	10.3875732421875	-1.74993896484375	-7.112470957279863	0	-9.4192505	-30.299377	27.83966	145.15964	-105.862305	-4.7797995
1448135035638	-1.436431884765625	10.8350830078125	-1.260772705078125	-6.981784299775581	0	-8.938599	-30.958557	27.359009	145.995	-104.25331	-4.5773196
1448135035678	-1.862518310546875	10.698211669921875	-2.474761962890625	-7.2845113028118185	0	-8.578491	-31.619263	26.519775	146.60239	-103.72555	-4.291015
1448135035718	-2.10888671875	10.165008544921875	-1.70233154296875	-7.285927414517481	0	-8.279419	-31.739807	26.278687	146.86804	-104.23788	-4.7106113
1448135035759	-2.01605224609375	9.78057861328125	-1.35479736328125	-7.274855738842042	0	-8.338928	-31.619263	26.339722	146.90906	-104.687996	-5.004829
1448135035799	-2.11126708984375	9.729400634765625	-1.4857177734375	-7.330228506971465	0	-8.459473	-31.13861	26.818848	146.51797	-105.965385	-5.630877
1448135035839	-1.78515625	10.255462646484375	-2.496185302734375	-7.362398475217315	0	-8.639526	-30.419922	27.539063	144.75916	-108.6666	-5.7403655
1448135035879	-1.5947265625	10.752960205078125	-4.293365478515625	-7.600955385819715	0	-8.938599	-29.399109	28.019714	143.29791	-111.225426	-5.579729
1448135035920	-1.767303466796875	10.079315185546875	-4.148162841796875	-7.766048879113016	0	-9.059143	-28.318787	28.73993	142.6377	-112.51003	-5.654067
1448135035960	-1.714935302734375	9.687744140625	-3.45904541015625	-7.682038062156253	0	-9.359741	-27.539063	29.579163	141.5521	-114.62547	-5.9687004
1448135036000	-1.61138916015625	8.965301513671875	-4.141021728515625	-8.014146200037501	0	-9.719849	-26.69983	30.358887	140.59009	-116.71128	-6.057053
1448135036041	-1.02581787109375	8.24761962890625	-4.137451171875	-8.050368071712196	0	-9.838867	-25.91858	31.439209	139.49811	-119.42293	-5.8569655
1448135036081	-1.451904296875	7.886993408203125	-4.61590576171875	-8.45782894840919	0	-10.079956	-25.498962	32.03888	138.98615	-120.49125	-5.8722816
1448135036121	-1.42572021484375	7.62158203125	-4.61590576171875	-8.549636971630628	0	-10.258484	-24.778748	32.57904	138.76794	-120.88911	-5.876458
1448135036162	-1.162689208984375	7.35498046875	-4.289794921875	-8.427289905100878	0	-10.198975	-24.539185	32.759094	138.51453	-121.27434	-5.9118996
1448135036202	-1.581634521484375	7.96197509765625	-4.693267822265625	-8.507726351831614	0	-10.438538	-24.35913	32.699585	138.38422	-121.21322	-5.9588804
1448135036242	-1.34954833984375	8.11907958984375	-4.200531005859375	-8.203789891427988	0	-10.739136	-24.539185	32.63855	138.60529	-120.147896	-5.98276
1448135036283	-1.4566650390625	8.74273681640625	-4.23980712890625	-8.061244836018325	0	-10.618591	-25.138855	32.159424	138.93866	-118.88589	-5.89852
1448135036323	-1.512603759765625	9.4544677734375	-3.52093505859375	-7.70399947800869	0	-10.618591	-25.379944	32.03888	139.20798	-118.074234	-5.877168
1448135036363	-1.46856689453125	9.467559814453125	-3.462615966796875	-7.6767227844955475	0	-9.899902	-26.219177	31.3797	139.86661	-116.192924	-5.906247
1448135036403	-1.488800048828125	8.939117431640625	-3.783966064453125	-7.891828128899064	0	-9.658813	-26.879883	30.839539	140.53174	-114.100296	-5.988277
1448135036444	-1.243621826171875	9.80914306640625	-2.003448486328125	-7.2449456997662125	0	-9.298706	-27.659607	30.178833	142.07819	-110.4167	-5.7998066
1448135036484	-1.3709716796875	10.392333984375	-1.94989013671875	-7.147376021473793	0	-8.938599	-28.799438	29.039001	143.03516	-108.067795	-5.431439
1448135036524	-1.550689697265625	10.62322998046875	-1.820159912109375	-7.113575608893646	0	-9.059143	-29.699707	28.079224	144.07202	-105.775764	-4.973972
1448135036564	-1.53997802734375	10.74462890625	-1.365509033203125	-7.0067532460323605	0	-8.938599	-30.479431	27.119446	144.55371	-104.68162	-4.687322
1448135036604	-1.57568359375	11.08740234375	-1.703521728515625	-7.012284874341411	0	-9.298706	-30.419922	26.638794	145.2229	-103.32178	-3.8869417
1448135036645	-1.881561279296875	10.658935546875	-2.28314208984375	-7.258221657262333	0	-9.599304	-31.498718	25.738525	145.32605	-103.66094	-3.259444
1448135036685	-1.955352783203125	9.957916259765625	-1.484527587890625	-7.2535555646891146	0	-9.599304	-31.498718	25.679016	144.98596	-104.84823	-3.5901768
1448135036725	-1.753021240234375	10.05670166015625	-1.751129150390625	-7.2468048383647465	0	-9.959412	-31.3797	26.219177	144.65619	-105.59205	-3.7714984
1448135036765	-1.328125	10.05194091796875	-2.191497802734375	-7.250759998115223	0	-9.599304	-31.199646	27.059937	143.8866	-107.14327	-3.9581058
1448135036806	-1.166259765625	10.91363525390625	-3.5137939453125	-7.309885850769305	0	-10.018921	-30.419922	27.719116	143.09631	-109.07754	-4.023135
1448135036846	-1.166259765625	10.91363525390625	-3.5137939453125	-7.309885850769305	0	-10.018921	-30.119324	28.019714	142.663	-110.22258	-4.1366215
1448135036886	-1.100799560546875	8.658233642578125	-3.52569580078125	-7.798681106904464	0	-10.438538	-29.159546	28.559875	141.57074	-113.00944	-4.571692
1448135036927	-1.179351806640625	8.621337890625	-3.817291259765625	-7.902736868307295	0	-10.679626	-28.259277	28.919983	141.02954	-114.60193	-4.5920234
1448135036967	-0.88775634765625	8.2928466796875	-3.9375	-7.94445330007777	0	-10.679626	-27.479553	29.638672	140.67767	-115.889755	-4.4248157
1448135037007	-1.38287353515625	8.3499755859375	-4.29931640625	-8.173264258478603	0	-10.919189	-27.119446	30.53894	140.3869	-116.84859	-4.5060797
1448135037047	-1.5614013671875	8.60467529296875	-4.219573974609375	-8.126213154308843	0	-10.978699	-26.579285	30.958557	140.30658	-117.061554	-4.587796
1448135037088	-1.2471923828125	8.439239501953125	-4.137451171875	-8.058859759785332	0	-10.739136	-26.039124	31.199646	140.3352	-117.257126	-4.7181535
1448135037128	-1.166259765625	8.403533935546875	-4.031524658203125	-8.016139301822363	0	-10.679626	-25.79956	31.13861	140.4859	-117.04031	-4.8224564
1448135037168	-1.234100341796875	8.551116943359375	-3.89227294921875	-7.955993706823693	0	-10.739136	-25.559998	30.958557	140.80109	-116.382225	-4.9102974
1448135037209	-1.36383056640625	9.205718994140625	-3.384063720703125	-7.6952438701556645	0	-10.618591	-25.979614	30.839539	141.30896	-115.286224	-5.0125256
1448135037249	-1.545928955078125	9.28070068359375	-2.83062744140625	-7.592069736691464	0	-10.438538	-26.69983	30.599976	142.3471	-112.86787	-5.2845426
1448135037289	-1.586395263671875	9.5211181640625	-2.831817626953125	-7.547638895102994	0	-10.018921	-27.2995	30.299377	143.10846	-110.8964	-5.425528
1448135037329	-1.526885986328125	9.515167236328125	-3.0377197265625	-7.581614264441791	0	-9.838867	-28.138733	29.818726	143.47119	-109.84218	-5.4115415
1448135037370	-1.453094482421875	9.7877197265625	-2.33074951171875	-7.3563192543665785	0	-9.719849	-28.799438	29.039001	144.23111	-107.56692	-5.2503037
1448135037410	-1.386444091796875	9.972198486328125	-1.117950439453125	-7.104530796867773	0	-9.838867	-29.699707	27.778625	145.07248	-105.3938	-4.9396653
1448135037450	-1.238861083984375	11.1826171875	-1.471435546875	-6.895874908782929	0	-10.258484	-30.899048	26.879883	145.75119	-103.75584	-4.281594
1448135037491	-1.49951171875	11.51348876953125	-2.393829345703125	-7.046138497809084	0	-10.079956	-31.498718	25.91858	146.15619	-102.93316	-3.1267655
1448135037531	-1.6470947265625	10.998138427734375	-2.610443115234375	-7.210333336897478	0	-10.018921	-31.739807	25.559998	146.14337	-103.036224	-3.0225172
1448135037571	-1.598297119140625	10.250701904296875	-1.720184326171875	-7.173688976249981	0	-10.079956	-31.799316	25.559998	146.15192	-103.68094	-3.4112678
1448135037612	-1.676849365234375	10.24237060546875	-1.663055419921875	-7.179345573738146	0	-9.838867	-31.199646	25.91858	145.49872	-104.850204	-4.155996
1448135037652	-1.360260009765625	10.4208984375	-2.080810546875	-7.164663611503983	0	-9.959412	-31.199646	26.278687	145.06372	-106.26547	-4.6149755
1448135037693	-1.261474609375	10.553009033203125	-3.04486083984375	-7.307265371747037	0	-9.959412	-30.479431	26.939392	143.32776	-108.947105	-4.9446383
1448135037733	-1.253143310546875	10.010284423828125	-3.548309326171875	-7.52431347392371	0	-9.4192505	-29.759216	27.479553	142.13211	-110.900085	-5.326321
1448135037773	-1.2281494140625	9.386627197265625	-3.603057861328125	-7.672257028058752	0	-9.779358	-29.399109	28.379822	141.21008	-112.606544	-5.6579213
1448135037814	-1.26861572265625	8.939117431640625	-3.94940185546875	-7.877584745131437	0	-9.838867	-28.439331	29.159546	140.41083	-114.216255	-5.8910804
1448135037854	-1.63995361328125	8.47137451171875	-4.15887451171875	-8.171807540169471	0	-10.018921	-28.019714	29.759216	139.7168	-115.51531	-6.2189665
1448135037894	-1.683990478515625	8.19049072265625	-3.986297607421875	-8.21908539007707	0	-10.379028	-27.598572	30.419922	139.42505	-115.975464	-6.416675
1448135037938	-1.794677734375	8.032196044921875	-3.966064453125	-8.299465680364927	0	-9.959412	-27.059937	30.599976	138.75812	-116.810745	-6.8269224
1448135037978	-1.6851806640625	8.265472412109375	-3.95654296875	-8.186801006514427	0	-9.899902	-26.759338	30.659485	138.48761	-116.95136	-6.8867817
1448135038019	-1.623291015625	8.710601806640625	-3.81610107421875	-7.997951411468531	0	-9.838867	-26.879883	30.599976	138.42303	-116.70447	-6.886603
1448135038059	-1.54949951171875	9.0450439453125	-3.77801513671875	-7.878510454134715	0	-9.599304	-27.059937	30.53894	138.61765	-116.11983	-6.895892
1448135038099	-1.526885986328125	8.998626708984375	-3.636383056640625	-7.848193079562977	0	-9.658813	-27.2995	30.659485	138.8075	-115.70211	-6.9216676
1448135038139	-1.7994384765625	9.279510498046875	-2.879425048828125	-7.661688120072004	0	-9.4192505	-27.659607	30.479431	139.75299	-113.91322	-7.0866504
1448135038180	-1.8232421875	9.569915771484375	-2.7425537109375	-7.569610980570786	0	-8.758545	-28.079224	30.299377	140.45508	-112.375305	-7.0185804
1448135038220	-1.6947021484375	9.6353759765625	-3.179351806640625	-7.624554624329646	0	-8.938599	-28.439331	29.818726	141.05334	-110.81776	-6.79386
1448135038261	-1.664947509765625	9.534210205078125	-2.87347412109375	-7.571473924312377	0	-8.879089	-29.039001	29.219055	141.71283	-109.25583	-6.652089
1448135038301	-1.57330322265625	9.67822265625	-2.62115478515625	-7.464856066851565	0	-8.699036	-29.93927	28.559875	142.12991	-108.49339	-6.6163816
1448135038341	-1.718505859375	10.80413818359375	-2.241485595703125	-7.190467983354887	0	-9.1796875	-30.358887	28.199768	143.39221	-106.50744	-6.498335
1448135038382	-1.70184326171875	10.441131591796875	-1.617828369140625	-7.1379936294504756	0	-8.699036	-31.13861	27.659607	144.1094	-105.48323	-6.538169
1448135038422	-1.593536376953125	10.00909423828125	-1.729705810546875	-7.220898537962812	0	-8.639526	-31.318665	26.998901	144.63	-104.9541	-6.69965
1448135038462	-1.861328125	9.876983642578125	-1.76898193359375	-7.307265371747037	0	-8.699036	-31.439209	26.638794	144.85382	-104.94662	-6.8428493
1448135038503	-2.000579833984375	9.900787353515625	-1.996307373046875	-7.376805739885704	0	-8.099365	-31.619263	26.339722	144.86365	-105.13523	-6.890021
1448135038543	-2.288604736328125	10.338775634765625	-2.070098876953125	-7.361181422029272	0	-7.8598022	-31.498718	26.69983	144.43542	-106.497955	-7.0773067
1448135038583	-2.362396240234375	10.633941650390625	-3.11865234375	-7.536601527223806	0	-7.9193115	-31.079102	27.479553	143.67719	-108.22514	-7.1885347
1448135038623	-2.226715087890625	10.462554931640625	-3.907745361328125	-7.726192712370514	0	-7.6797485	-30.659485	27.778625	142.70569	-110.530815	-7.4375215
1448135038664	-1.941070556640625	9.33782958984375	-3.276947021484375	-7.776867995099168	0	-8.099365	-29.759216	28.799438	141.78577	-112.74407	-7.8781824
1448135038704	-1.8089599609375	8.88555908203125	-3.38287353515625	-7.884693242132308	0	-8.518982	-28.858948	29.219055	141.37927	-113.73576	-7.9799848
1448135038744	-1.61376953125	8.627288818359375	-4.036285400390625	-8.08113371904324	0	-8.81958	-27.83966	30.119324	140.31403	-116.20933	-7.789754
1448135038784	-1.864898681640625	8.520172119140625	-3.950592041015625	-8.162008440832686	0	-9.359741	-27.119446	30.718994	139.7663	-117.25622	-7.6396027
1448135038825	-1.888702392578125	8.213104248046875	-4.055328369140625	-8.3002555884101	0	-9.47876	-26.399231	31.019592	139.36807	-117.89475	-7.6313314
1448135038865	-1.736358642578125	8.1690673828125	-4.240997314453125	-8.326157017044814	0	-9.899902	-25.91858	31.498718	139.24832	-118.10303	-7.651613
1448135038905	-1.73040771484375	7.90484619140625	-4.0184326171875	-8.33826561731498	0	-9.779358	-25.619507	31.678772	139.15375	-118.25272	-7.719604
1448135038946	-1.907745361328125	8.696319580078125	-3.87322998046875	-8.09916208362317	0	-9.779358	-26.159668	31.619263	139.3711	-117.708	-7.7783074
1448135038986	-1.822052001953125	9.001007080078125	-3.908935546875	-7.998280467602586	0	-9.298706	-26.399231	31.3797	139.71368	-116.865814	-7.7352376
1448135039026	-1.73040771484375	8.753448486328125	-3.699462890625	-7.983531739934191	0	-8.938599	-26.638794	31.259155	140.14667	-115.66285	-7.8353887
1448135039066	-2.017242431640625	9.3306884765625	-3.1710205078125	-7.771305049112199	0	-9.059143	-27.178955	31.019592	140.45538	-114.89678	-7.947441
1448135039107	-1.92559814453125	9.668701171875	-2.805633544921875	-7.584558262673296	0	-8.81958	-27.479553	30.599976	141.3035	-113.09493	-8.13717
1448135039147	-1.631622314453125	9.236663818359375	-2.94012451171875	-7.646758109447013	0	-8.999634	-28.079224	29.458618	142.53656	-110.184074	-8.127781
1448135039187	-2.21600341796875	9.860321044921875	-2.191497802734375	-7.471472632120733	0	-8.399963	-29.579163	28.49884	143.27829	-108.17921	-8.198422
1448135039227	-1.947021484375	10.600616455078125	-1.42620849609375	-7.118220102253147	0	-8.279419	-29.759216	28.199768	144.16568	-106.28556	-8.043025
1448135039268	-1.6851806640625	10.735107421875	-1.1429443359375	-6.994664292720226	0	-7.978821	-30.899048	27.539063	144.53622	-105.42257	-7.839667
1448135039308	-1.707794189453125	10.850555419921875	-1.909423828125	-7.117113543007931	0	-7.9193115	-31.318665	27.359009	144.8493	-104.34561	-7.3715453
1448135039348	-2.3564453125	10.45184326171875	-2.527130126953125	-7.446882257924557	0	-8.039856	-31.619263	26.579285	144.75952	-104.68547	-7.164846
1448135039388	-2.41119384765625	9.896026611328125	-1.922515869140625	-7.448143535587046	0	-8.099365	-31.799316	26.159668	144.50452	-105.84368	-7.564994
1448135039429	-2.633758544921875	9.546112060546875	-2.04986572265625	-7.601495060780836	0	-8.099365	-31.3797	26.159668	143.66132	-107.46437	-7.9528875
1448135039469	-2.137451171875	9.68060302734375	-2.642578125	-7.592876049172176	0	-7.978821	-31.019592	26.45874	143.08527	-108.445335	-7.9522758
1448135039509	-1.76849365234375	10.11383056640625	-3.300750732421875	-7.560584376358742	0	-8.1588745	-30.358887	27.479553	141.3789	-111.54119	-7.933636
1448135039550	-1.562591552734375	9.548492431640625	-3.543548583984375	-7.698911148456235	0	-8.1588745	-29.699707	28.138733	140.38556	-113.22592	-7.894635
1448135039590	-1.648284912109375	9.52825927734375	-4.1612548828125	-7.878201835091653	0	-8.639526	-28.73993	28.979492	139.5203	-115.01212	-7.756476
1448135039630	-1.914886474609375	8.989105224609375	-4.486175537109375	-8.197860365102349	0	-8.758545	-28.079224	29.818726	138.95013	-116.69666	-7.744481
1448135039671	-1.65899658203125	8.265472412109375	-4.193389892578125	-8.253188934795428	0	-8.639526	-26.998901	30.599976	138.78577	-117.29896	-7.8024473
1448135039711	-1.648284912109375	7.3216552734375	-4.461181640625	-8.70560557644322	0	-9.239197	-26.219177	31.13861	138.41357	-118.51009	-8.065072
1448135039751	-1.82086181640625	7.696563720703125	-4.283843994140625	-8.54491148449538	0	-8.938599	-25.559998	31.559753	138.3906	-118.896164	-8.14421
1448135039792	-2.1279296875	8.278564453125	-4.200531005859375	-8.410138844161562	0	-8.999634	-25.559998	31.739807	138.48914	-118.78541	-8.191966
1448135039832	-1.874420166015625	8.31903076171875	-4.08270263671875	-8.269749988130144	0	-9.1796875	-25.559998	31.799316	138.57547	-118.57814	-8.21724
1448135039872	-1.724456787109375	8.26190185546875	-4.1136474609375	-8.249744962617946	0	-8.938599	-25.85907	31.858826	138.83276	-117.884285	-8.274624
1448135039912	-1.851806640625	8.510650634765625	-3.8565673828125	-8.13259981740499	0	-8.699036	-26.039124	31.739807	139.24994	-116.72083	-8.356968
1448135039953	-2.03985595703125	9.54254150390625	-3.34954833984375	-7.768675269537353	0	-8.938599	-26.519775	31.498718	140.45395	-114.12538	-8.453463
1448135039993	-1.908935546875	9.80438232421875	-3.51141357421875	-7.712791698572909	0	-8.578491	-27.719116	30.659485	141.51343	-112.10549	-8.362446
1448135040033	-1.95892333984375	9.77105712890625	-3.14959716796875	-7.647309231925039	0	-8.699036	-28.318787	29.818726	142.07684	-111.02106	-8.314234
1448135040073	-1.7899169921875	9.84246826171875	-2.384307861328125	-7.425792698221226	0	-8.279419	-28.919983	29.039001	143.21722	-108.82822	-8.240143
1448135040114	-1.76373291015625	10.29949951171875	-1.460723876953125	-7.146704753075907	0	-8.099365	-29.87976	28.259277	144.71844	-105.827675	-7.861619
1448135040154	-1.769683837890625	10.611328125	-1.33099365234375	-7.066043371363104	0	-7.6187134	-30.53894	27.359009	145.47702	-104.278786	-7.256444
1448135040194	-1.83514404296875	11.249267578125	-2.20697021484375	-7.121985815370763	0	-7.1395874	-31.678772	26.579285	145.81067	-103.65606	-6.5500946
1448135040234	-2.214813232421875	10.46136474609375	-2.36883544921875	-7.38219985471599	0	-7.559204	-32.27997	25.85907	145.90906	-103.93996	-6.241293
1448135040275	-2.16839599609375	10.1162109375	-1.717803955078125	-7.310601004341523	0	-7.1990967	-32.339478	25.498962	145.93402	-104.9004	-6.3463197
1448135040315	-2.500457763671875	10.157867431640625	-2.31884765625	-7.496067158485136	0	-7.8598022	-31.439209	25.979614	145.51923	-106.40976	-6.6292534
1448135040355	-1.99462890625	10.098358154296875	-2.92108154296875	-7.530057071549468	0	-7.8598022	-31.019592	26.278687	144.77063	-108.34317	-6.840756
1448135040396	-1.93988037109375	10.165008544921875	-3.424530029296875	-7.615573267043223	0	-7.978821	-30.358887	27.598572	143.82538	-110.44526	-7.060751
1448135040436	-1.8660888671875	9.9019775390625	-3.200775146484375	-7.607710842859371	0	-8.338928	-29.519653	28.49884	143.3761	-111.38013	-7.152355
1448135040476	-1.476898193359375	10.100738525390625	-3.764923095703125	-7.602304820962463	0	-8.338928	-28.73993	29.519653	142.60687	-113.12656	-7.1139474
1448135040516	-1.695892333984375	9.06884765625	-3.850616455078125	-7.929810489376205	0	-8.639526	-27.598572	30.599976	141.71954	-115.4588	-7.020957
1448135040557	-1.467376708984375	7.451385498046875	-3.836334228515625	-8.341105352944995	0	-8.699036	-26.879883	30.899048	141.23672	-116.50601	-7.0576324
1448135040597	-1.634002685546875	7.663238525390625	-4.369537353515625	-8.518307142638706	0	-8.639526	-26.69983	31.019592	141.04352	-116.97393	-7.116465
1448135040637	-1.798248291015625	7.59063720703125	-4.48974609375	-8.665266209093227	0	-8.758545	-26.638794	31.079102	140.86719	-117.811165	-7.2237725
1448135040678	-2.13507080078125	8.1405029296875	-4.000579833984375	-8.601358861815664	0	-8.999634	-26.339722	31.318665	140.95972	-118.05347	-7.381813
1448135040718	-2.004150390625	8.455902099609375	-3.82562255859375	-8.18606639948731	0	-8.938599	-26.399231	31.739807	141.31897	-117.376495	-7.42651
1448135040758	-1.645904541015625	8.85223388671875	-3.661376953125	-7.923795604270554	0	-8.999634	-26.45874	31.799316	141.67029	-116.331375	-7.2803893
1448135040798	-1.6375732421875	8.941497802734375	-3.255523681640625	-7.794536164306348	0	-9.118652	-26.519775	31.97937	141.89621	-115.650345	-7.2065935
1448135040839	-1.72088623046875	9.348541259765625	-2.981781005859375	-7.651171034935853	0	-8.639526	-27.059937	31.498718	142.43549	-113.959984	-7.0764647
1448135040879	-1.526885986328125	9.87579345703125	-3.129364013671875	-7.521967982139957	0	-8.879089	-27.89917	30.899048	143.4112	-111.08866	-6.704713
1448135040919	-1.929168701171875	10.07574462890625	-2.6473388671875	-7.461554784967489	0	-8.459473	-28.559875	29.93927	144.10736	-109.08299	-6.708371
1448135040960	-1.63043212890625	10.2542724609375	-2.18316650390625	-7.268751732643379	0	-8.459473	-29.399109	28.73993	144.93439	-107.00105	-6.769512
1448135041000	-1.10198974609375	10.316162109375	-1.229827880859375	-6.980941761213526	0	-8.1588745	-30.178833	28.138733	145.35141	-106.00102	-6.7730284
1448135041040	-1.737548828125	10.355438232421875	-1.555938720703125	-7.149166899507392	0	-7.8598022	-30.958557	27.178955	146.04648	-104.20613	-6.7849073
1448135041080	-1.619720458984375	11.588470458984375	-2.027252197265625	-6.988533676661534	0	-8.099365	-31.199646	26.45874	146.58948	-102.92613	-6.1494126
1448135041121	-1.88275146484375	10.524444580078125	-1.69281005859375	-7.170526583601923	0	-7.9193115	-31.739807	25.679016	146.60577	-103.25495	-6.285038
1448135041161	-2.76824951171875	9.4068603515625	-1.61187744140625	-7.564562221897788	0	-7.9193115	-31.858826	25.318909	146.41022	-103.83697	-7.104647
1448135041201	-2.327880859375	9.579437255859375	-1.70947265625	-7.452436934230261	0	-7.8598022	-31.559753	25.439453	146.23029	-104.39392	-7.397629
1448135041242	-2.22552490234375	10.01861572265625	-2.65447998046875	-7.53974957709077	0	-7.319641	-31.619263	25.738525	145.59793	-106.22744	-7.778673
1448135041282	-2.37310791015625	10.298309326171875	-2.998443603515625	-7.58696989286503	0	-7.1395874	-30.958557	26.879883	144.23718	-109.50782	-8.414766
1448135041322	-1.945831298828125	9.293792724609375	-2.77349853515625	-7.6678005959826425	0	-7.3791504	-30.358887	27.719116	143.25183	-111.36521	-8.648504
1448135041363	-1.631622314453125	9.186676025390625	-3.509033203125	-7.795127776027593	0	-7.499695	-29.87976	28.619385	142.17926	-113.150085	-8.382795
1448135041403	-1.941070556640625	9.4163818359375	-4.0755615234375	-7.962758966760047	0	-8.099365	-28.799438	29.699707	141.66568	-114.001465	-8.153828
1448135041443	-2.005340576171875	9.02362060546875	-4.04461669921875	-8.07768827808141	0	-8.399963	-28.079224	30.299377	140.81659	-115.37432	-7.852832
1448135041483	-1.998199462890625	8.39044189453125	-4.07794189453125	-8.285317469662727	0	-8.699036	-27.059937	30.839539	139.86438	-116.804825	-7.7446675
1448135041524	-1.86846923828125	7.867950439453125	-3.912506103515625	-8.36196333368689	0	-9.118652	-26.579285	31.259155	139.43549	-117.41144	-7.7019
1448135041564	-1.926788330078125	8.28570556640625	-4.19219970703125	-8.334622578536996	0	-9.059143	-26.45874	31.079102	139.2511	-117.55839	-7.6689205
1448135041604	-1.9327392578125	8.56658935546875	-4.1326904296875	-8.225094493222123	0	-9.359741	-26.399231	31.079102	139.0773	-117.60611	-7.598322
1448135041644	-1.757781982421875	8.4356689453125	-3.8851318359375	-8.135446168973925	0	-9.539795	-26.69983	31.199646	139.14536	-117.2781	-7.57868
1448135041685	-1.7613525390625	8.849853515625	-3.645904541015625	-7.951176480814453	0	-9.4192505	-26.69983	31.259155	139.61646	-116.01373	-7.649805
1448135041725	-1.8565673828125	9.4354248046875	-3.574493408203125	-7.80550929399193	0	-9.059143	-27.2995	30.718994	140.25418	-114.8182	-7.7646904
1448135041765	-1.726837158203125	9.5830078125	-3.112701416015625	-7.628649303064632	0	-8.938599	-27.479553	30.479431	141.14108	-113.38878	-8.005788
1448135041806	-2.02081298828125	9.763916015625	-3.07818603515625	-7.646758109447013	0	-8.578491	-27.89917	29.638672	141.55017	-112.61887	-8.18146
1448135041846	-2.37548828125	9.560394287109375	-3.2186279296875	-7.815048324503761	0	-8.399963	-28.318787	28.979492	142.21918	-111.01043	-8.541331
1448135041886	-2.212432861328125	9.565155029296875	-2.24029541015625	-7.545532385395672	0	-8.1588745	-29.278564	28.379822	143.0033	-109.240265	-8.77253
