timestamp	accel_x	accel_y	accel_z	accel_mag	temperature	mag_x	mag_y	mag_z	azimuth	pitch	roll
1448102416465	-1.257781982421875	4.434417724609375	9.220901489257813	-6.285586334669331	0	-23.898315	-27.397156	-21.879578	117.65039	-30.247648	-2.987266
1448102416505	0.772674560546875	5.150909423828125	7.3213653564453125	-6.167238882877887	0	-21.51184	-27.397156	-21.879578	117.30615	-31.005367	-3.087966
1448102416546	-0.108062744140625	5.236602783203125	8.287796020507813	-6.143768300403318	0	-22.875977	-27.397156	-19.558716	117.59259	-31.425547	-3.1020267
1448102416586	-1.050689697265625	4.770050048828125	8.402053833007813	-6.325017861866488	0	-22.363281	-30.62439	-20.056152	118.37488	-31.544254	-3.3762467
1448102416626	-0.415130615234375	5.112823486328125	8.168777465820313	-6.219613752895885	0	-22.705078	-28.245544	-20.387268	118.835205	-31.749098	-3.5701997
1448102416666	-0.557952880859375	5.150909423828125	8.209243774414063	-6.228583745511654	0	-20.829773	-29.095459	-21.217346	119.25076	-31.952602	-3.7185633
1448102416706	-0.524627685546875	5.177093505859375	8.611526489257813	-6.164623570975463	0	-20.658875	-31.304932	-19.06128	119.91098	-32.20455	-3.797942
1448102416746	-0.222320556640625	5.048553466796875	7.6189117431640625	-6.27883234136369	0	-22.02301	-29.945374	-20.387268	121.21649	-32.86556	-3.6460392
1448102416787	-0.469879150390625	5.491302490234375	7.7879180908203125	-6.2275859694792945	0	-22.363281	-29.266357	-21.051025	121.59161	-33.143208	-3.646986
1448102416827	-0.586517333984375	5.412750244140625	8.123550415039063	-6.208019262376441	0	-22.705078	-31.304932	-19.392395	123.11667	-33.831707	-3.6280982
1448102416867	-0.074737548828125	5.474639892578125	7.6688995361328125	-6.1915202111318735	0	-21.51184	-29.776001	-19.558716	124.28714	-34.364513	-3.643935
1448102416907	-0.341339111328125	5.457977294921875	7.6903228759765625	-6.227918530579968	0	-22.02301	-31.645203	-18.397522	124.914856	-34.56269	-3.6724842
1448102416948	-0.686492919921875	5.186614990234375	8.133071899414063	-6.252279534745556	0	-21.51184	-32.833862	-17.56897	126.99634	-34.9837	-3.8590047
1448102416988	-0.369903564453125	5.872161865234375	7.1618804931640625	-6.247929069168475	0	-19.465637	-31.814575	-16.905212	128.06464	-35.49728	-4.173358
1448102417028	-0.479400634765625	5.636505126953125	7.6522369384765625	-6.2275859694792945	0	-20.658875	-32.32422	-17.402649	129.37134	-35.856766	-4.496459
1448102417068	0.187103271484375	6.038787841796875	8.544876098632813	-5.9633244163456	0	-19.976807	-33.683777	-16.740417	131.17621	-35.951904	-4.7628245
1448102417108	-0.626983642578125	5.400848388671875	7.6927032470703125	-6.2757972593807985	0	-19.465637	-33.514404	-16.905212	133.57043	-36.349415	-4.877743
1448102417149	-1.814788818359375	4.965240478515625	7.4380035400390625	-6.552609342331278	0	-19.465637	-36.231995	-14.915466	135.44592	-36.99968	-5.354327
1448102417189	-1.291107177734375	5.469879150390625	7.8640899658203125	-6.336317311446146	0	-17.077637	-36.572266	-14.251709	136.60663	-37.195488	-6.0874114
1448102417229	-1.055450439453125	5.593658447265625	7.6189117431640625	-6.319893853652625	0	-18.101501	-35.55298	-13.920593	137.46149	-37.33038	-6.607557
1448102417269	-1.710052490234375	5.772186279296875	7.4094390869140625	-6.419628952592514	0	-16.226196	-36.062622	-13.423157	138.1011	-37.659973	-7.1122284
1448102417310	-1.183990478515625	6.067352294921875	7.4475250244140625	-6.29506374918038	0	-17.759705	-37.931824	-12.5946045	138.98077	-38.093803	-7.451604
1448102417350	-1.064971923828125	6.093536376953125	6.7572174072265625	-6.373557346558076	0	-16.566467	-38.441467	-12.097168	140.0617	-38.811584	-7.743699
1448102417390	-1.686248779296875	5.700775146484375	7.8807525634765625	-6.357646690564794	0	-15.884399	-36.74164	-11.433411	141.34207	-39.481632	-8.101628
1448102417430	-1.398223876953125	6.005462646484375	7.6927032470703125	-6.299472683149133	0	-15.544128	-37.76245	-11.433411	142.46033	-40.47917	-8.7076645
1448102417470	-0.341339111328125	6.298248291015625	7.4070587158203125	-6.150923879840034	0	-15.713501	-38.95111	-9.941101	143.93198	-42.207405	-9.176293
1448102417510	-0.369903564453125	6.310150146484375	6.7762603759765625	-6.240578833768955	0	-14.349365	-39.970398	-8.946228	147.0409	-43.884174	-9.349707
1448102417551	-0.753143310546875	6.452972412109375	6.6096343994140625	-6.298115497971159	0	-11.962891	-41.670227	-7.2875977	151.71082	-45.327236	-9.2851715
1448102417591	-1.893341064453125	6.141143798828125	4.7053375244140625	-6.814420149324398	0	-11.451721	-41.8396	-6.1279297	156.1626	-46.39269	-9.563111
1448102417631	-1.760040283203125	6.426788330078125	6.1502227783203125	-6.517683639677756	0	-8.21228	-42.349243	-4.3029785	159.85846	-46.083115	-10.236483
1448102417671	-3.716705322265625	6.469635009765625	6.7000885009765625	-6.732023901010651	0	-7.5302124	-42.349243	-3.6392212	164.11261	-44.823517	-10.63495
1448102417712	-1.124481201171875	6.643402099609375	6.5953521728515625	-6.3260435687251	0	-6.5063477	-43.029785	-4.3029785	166.59442	-43.28017	-11.005396
1448102417752	-1.298248291015625	5.817413330078125	8.863845825195313	-6.148320231549012	0	-2.4139404	-43.029785	-4.3029785	169.38257	-41.8583	-11.217891
1448102417792	-1.591033935546875	5.579376220703125	8.194961547851563	-6.316141028316217	0	-3.4378052	-43.7088	-4.634094	172.44177	-41.027454	-11.9342575
1448102417832	-2.783599853515625	6.205413818359375	6.7024688720703125	-6.6247321779630655	0	-1.3916016	-43.36853	-5.630493	174.57196	-40.559017	-13.768288
1448102417872	-2.983551025390625	5.895965576171875	6.4929962158203125	-6.739775784854704	0	0.31433105	-43.7088	-5.2978516	176.76807	-40.06212	-15.054201
1448102417912	-1.183990478515625	5.377044677734375	7.8974151611328125	-6.329464776809569	0	3.553772	-44.218445	-6.1279297	179.20459	-39.300095	-14.961445
1448102417953	-2.924041748046875	5.903106689453125	7.1999664306640625	-6.616140570377	0	2.7008057	-44.389343	-6.625366	181.38675	-38.44171	-15.732173
1448102417995	-2.162322998046875	5.653167724609375	7.1952056884765625	-6.537647504927754	0	4.4052124	-44.72809	-6.2927246	183.74033	-36.853832	-16.442324
1448102418035	-2.040924072265625	5.438934326171875	8.078323364257813	-6.418926223178497	0	5.0872803	-43.029785	-8.615112	184.07408	-35.67948	-16.200214
1448102418075	-2.709808349609375	4.886688232421875	7.4213409423828125	-6.70850044943754	0	4.576111	-43.53943	-8.779907	184.21344	-35.2386	-16.648209
1448102418116	-4.111846923828125	4.196380615234375	7.5736846923828125	-7.039251380149392	0	5.0872803	-42.349243	-8.282471	185.56152	-34.032593	-18.68001
1448102418156	-2.769317626953125	4.574859619140625	7.8331451416015625	-6.701976490814214	0	8.157349	-41.670227	-9.941101	186.18068	-33.053875	-19.098743
1448102418196	-3.202545166015625	5.384185791015625	7.6450958251953125	-6.671837417252254	0	6.6223145	-40.820313	-9.443665	185.53024	-32.32697	-19.824951
1448102418236	-4.138031005859375	4.415374755859375	8.252090454101563	-6.8860804907171795	0	7.133484	-40.65094	-9.609985	184.75557	-32.005592	-20.634499
1448102418276	-4.540313720703125	4.353485107421875	7.3451690673828125	-7.13109248662958	0	7.133484	-40.31067	-9.941101	184.40479	-31.844784	-21.339647
1448102418317	-3.988067626953125	4.101165771484375	7.4403839111328125	-7.05824011532986	0	8.157349	-41.670227	-9.941101	184.5136	-31.760105	-21.911594
1448102418357	-4.342742919921875	4.158294677734375	7.9164581298828125	-7.025950815421817	0	7.3043823	-40.48004	-9.77478	184.71146	-31.405264	-22.44538
1448102418397	-5.154449462890625	3.915496826171875	7.5141754150390625	-7.301560523600413	0	8.49762	-41.329956	-11.26709	184.79475	-31.16839	-23.176584
1448102418437	-3.811920166015625	3.836944580078125	6.4858551025390625	-7.254957486519405	0	8.668518	-40.820313	-11.102295	184.05031	-31.155056	-23.627016
1448102418477	-4.076141357421875	3.832183837890625	7.6641387939453125	-7.082599031862495	0	10.032654	-40.820313	-10.769653	183.23413	-31.06847	-23.001968
1448102418518	-3.809539794921875	3.582244873046875	7.7593536376953125	-7.062140359957845	0	7.133484	-40.65094	-11.26709	181.72888	-31.601707	-22.332975
1448102418558	-4.259429931640625	3.368011474609375	6.8762359619140625	-7.360211334051186	0	7.646179	-39.801025	-10.438538	179.46747	-33.282753	-22.060284
1448102418598	-4.414154052734375	3.413238525390625	7.9616851806640625	-7.168272944208715	0	7.8155518	-41.329956	-8.946228	177.85773	-34.510654	-21.273312
1448102418638	-0.784088134765625	3.665557861328125	8.447280883789063	-6.440779058483418	0	5.0872803	-42.010498	-10.272217	176.83307	-35.185757	-19.793219
1448102418678	1.432037353515625	4.353485107421875	6.3811187744140625	-6.318528722724897	0	5.2581787	-41.500854	-9.77478	177.74567	-35.59044	-18.102304
1448102418719	-1.981414794921875	4.870025634765625	6.4287261962890625	-6.75416866807248	0	4.0649414	-42.689514	-8.946228	182.47348	-34.414284	-15.8466215
1448102418759	-3.769073486328125	4.993804931640625	7.2880401611328125	-6.888934562283517	0	5.769348	-42.010498	-9.941101	185.67401	-33.20094	-15.070808
1448102418799	-2.797882080078125	5.315155029296875	7.0261993408203125	-6.71734891113735	0	6.111145	-42.010498	-11.26709	186.41681	-32.739605	-15.574814
1448102418839	-3.535797119140625	4.551055908203125	8.252090454101563	-6.762367872982734	0	5.5999756	-42.17987	-11.102295	187.75761	-31.933838	-14.945688
1448102418879	-0.772186279296875	3.972625732421875	6.3120880126953125	-6.722361444728973	0	7.646179	-40.48004	-11.433411	189.65276	-31.32508	-12.769233
1448102418920	-0.105682373046875	4.353485107421875	9.132827758789063	-6.148645586237567	0	4.7470093	-41.329956	-13.589478	193.5569	-30.404047	-9.458125
1448102418960	-1.724334716796875	4.179718017578125	7.1452178955078125	-6.708116306918969	0	4.576111	-40.820313	-12.097168	198.80756	-29.831465	-6.931219
1448102419000	-1.112579345703125	4.027374267578125	9.654129028320313	-6.261332175110699	0	5.2581787	-39.460754	-13.423157	203.19276	-29.122345	-6.5106735
1448102419040	-2.440826416015625	4.234466552734375	8.287796020507813	-6.631472261274113	0	7.133484	-40.989685	-14.251709	207.37161	-27.791649	-6.833713
1448102419080	-2.148040771484375	4.058319091796875	10.087356567382813	-6.342839776240954	0	10.032654	-37.76245	-13.423157	211.14566	-26.494812	-6.7481403
1448102419121	-2.597930908203125	3.789337158203125	9.404190063476563	-6.551512241816426	0	9.350586	-37.76245	-16.740417	213.68956	-25.842499	-7.085242
1448102419161	-3.119232177734375	3.967864990234375	7.4022979736328125	-6.934156652232665	0	9.350586	-37.08191	-15.745544	215.14606	-25.527996	-6.5972805
1448102419201	-2.009979248046875	3.560821533203125	10.646743774414063	-6.314095732347587	0	12.249756	-36.912537	-16.905212	216.42126	-24.605766	-4.8517685
1448102419241	-0.836456298828125	4.570098876953125	9.297073364257813	-6.423144788971034	0	9.521484	-35.212708	-18.232727	217.58018	-23.755875	-4.483278
1448102419281	0.168060302734375	4.110687255859375	11.108535766601563	-5.883937214952665	0	10.543823	-37.931824	-18.232727	218.66745	-22.285915	-3.9551375
1448102419322	0.786956787109375	4.053558349609375	8.399673461914063	-6.167893004564284	0	8.668518	-35.043335	-19.725037	219.45644	-20.79295	-4.2063856
1448102419362	-0.653167724609375	3.848846435546875	8.968582153320313	-6.31886995536383	0	9.521484	-33.85315	-19.2276	220.83582	-19.608717	-4.7668285
1448102419402	-0.865020751953125	2.518218994140625	9.646987915039063	-6.445025048102219	0	11.054993	-31.645203	-20.71991	222.74663	-18.46383	-4.3167133
1448102419442	-0.293731689453125	1.289947509765625	8.378250122070313	-6.744825034006775	0	10.88562	-31.814575	-21.217346	225.27695	-16.679924	-5.8740077
1448102419482	-1.645782470703125	2.004058837890625	8.523452758789063	-6.826377000629556	0	13.442993	-30.285645	-22.377014	226.24208	-15.918552	-6.8923683
1448102419523	-3.169219970703125	2.161163330078125	9.151870727539063	-6.952863136357161	0	15.829468	-28.585815	-22.045898	228.36517	-13.897561	-8.460428
1448102419563	-2.347991943359375	1.680328369140625	9.892166137695313	-6.7694133802025656	0	16.342163	-27.7359	-22.87445	231.91756	-12.123865	-11.140346
1448102419603	-1.831451416015625	0.561553955078125	8.790054321289063	-7.064309559446417	0	17.364502	-26.716614	-22.543335	234.39949	-12.10764	-14.098586
1448102419644	-2.862152099609375	1.351837158203125	8.078323364257813	-7.2437873999740905	0	18.899536	-25.8667	-22.045898	235.13272	-11.927565	-15.436952
1448102419684	-1.583892822265625	0.866241455078125	10.034988403320313	-6.75416866807248	0	21.79718	-22.97821	-20.884705	237.04138	-9.907474	-16.3742
1448102419724	-2.845489501953125	0.199737548828125	9.311355590820313	-7.224816965410278	0	22.821045	-22.639465	-20.884705	237.75458	-8.142692	-17.332666
1448102419764	-3.550079345703125	0.868621826171875	8.754348754882813	-7.342276312788524	0	21.627808	-21.78955	-20.71991	237.84634	-7.2030787	-18.012308
1448102419805	-1.910003662109375	0.787689208984375	10.594375610351563	-6.728928614483579	0	23.161316	-21.618652	-20.553589	237.66228	-5.297789	-19.198421
1448102419845	-2.547943115234375	0.759124755859375	9.516067504882813	-7.02680699592437	0	23.674011	-20.770264	-21.051025	237.94394	-4.7828774	-18.84366
1448102419885	-2.433685302734375	0.406829833984375	7.4713287353515625	-7.473260490498315	0	23.161316	-20.26062	-20.884705	238.44772	-3.741809	-17.750288
1448102419925	-4.659332275390625	0.085479736328125	11.089492797851563	-7.254024779014522	0	21.968079	-18.730164	-21.382141	238.92688	-1.8427798	-15.777048
1448102419965	-1.460113525390625	0.080718994140625	7.6974639892578125	-7.293022975517198	0	21.968079	-17.710876	-24.36676	238.8396	-1.3226397	-15.159018
1448102420006	-2.647918701171875	-0.081146240234375	9.037612915039063	-7.294917700497769	0	21.28601	-19.070435	-24.36676	238.30322	-0.025708593	-15.691591
1448102420046	-1.350616455078125	-0.283477783203125	7.7379302978515625	-7.336005727447278	0	20.263672	-16.69159	-23.040771	238.45685	1.260371	-16.777773
1448102420086	-4.864044189453125	-0.857147216796875	10.323013305664063	-7.661414250603444	0	23.503113	-16.860962	-23.538208	239.53242	3.2957504	-18.480698
1448102420126	-2.593170166015625	0.166412353515625	8.166397094726563	-7.41084557138538	0	23.674011	-16.69159	-22.377014	240.01176	4.962249	-19.881727
1448102420167	-2.971649169921875	-0.702423095703125	7.6831817626953125	-7.8043239208664765	0	24.014282	-13.632202	-23.371887	240.40472	6.959364	-20.188509
1448102420207	-4.633148193359375	-2.330596923828125	12.060684204101563	-7.548959841136311	0	25.718689	-13.632202	-24.035645	241.2024	9.716364	-20.04994
1448102420247	-2.874053955078125	-2.609100341796875	11.546524047851563	-7.3442089362214285	0	25.549316	-12.1032715	-23.869324	241.4191	10.841763	-20.075285
1448102420287	-2.079010009765625	-2.732879638671875	6.7500762939453125	-8.414412280794068	0	24.69635	-11.593628	-24.36676	242.25783	10.717416	-21.001259
1448102420328	-3.223968505859375	-2.471038818359375	6.5644073486328125	-8.87418377083297	0	25.378418	-10.914612	-22.045898	243.11066	10.960644	-21.565329
1448102420368	-2.431304931640625	-1.264190673828125	9.099502563476563	-7.481947992062508	0	26.571655	-9.384155	-19.889832	245.05399	12.7037115	-20.99042
1448102420408	-3.711944580078125	-2.887603759765625	10.320632934570313	-7.877588700207652	0	25.036621	-9.895325	-21.051025	246.6036	14.54907	-20.451883
1448102420448	-3.447723388671875	-2.609100341796875	9.744583129882813	-7.886246022366172	0	24.867249	-7.345581	-21.879578	247.68845	15.3726015	-19.906944
1448102420488	-3.554840087890625	-1.476043701171875	8.092605590820313	-8.056822356481312	0	24.18518	-6.666565	-22.87445	248.58214	15.5458555	-18.432907
1448102420529	-1.869537353515625	-2.016387939453125	9.737442016601563	-7.3876091518087925	0	24.18518	-4.966736	-23.538208	249.18645	16.21796	-16.008825
1448102420569	-2.824066162109375	-2.180633544921875	8.263992309570313	-8.00124889771018	0	23.503113	-4.966736	-24.533081	249.89609	16.55965	-14.93071
1448102420609	-1.048309326171875	-3.332733154296875	8.859085083007813	-7.690461393353671	0	24.525452	-4.626465	-24.533081	250.73605	15.650613	-14.504418
1448102420650	-1.812408447265625	-1.971160888671875	11.056167602539063	-7.109824468628958	0	22.991943	-3.7780762	-25.361633	252.92316	15.253312	-12.057949
1448102420690	-2.083770751953125	-2.047332763671875	9.556533813476563	-7.477344690281556	0	22.309875	-4.4570923	-26.02539	257.02542	15.072322	-9.47071
1448102420730	-0.460357666015625	-3.009002685546875	6.3620758056640625	-8.105801524547495	0	20.94574	-2.7572632	-26.358032	262.0011	14.554455	-7.5030637
1448102420770	-0.355621337890625	-5.877349853515625	14.164932250976563	-6.990226257122412	0	17.875671	1.3198853	-27.352905	265.22662	16.354582	2.0064986
1448102420810	-1.443450927734375	-6.127288818359375	9.989761352539063	-8.251279580779151	0	13.954163	2.5100708	-29.507446	267.56824	16.874151	0.5636466
1448102420851	-1.671966552734375	-2.437713623046875	7.1523590087890625	-8.062272383693989	0	16.000366	2.848816	-27.850342	271.776	19.142685	-5.7321486
1448102420891	-1.036407470703125	-4.594329833984375	8.604385375976563	-8.082173118021798	0	20.94574	6.4178467	-23.704529	274.01013	20.180063	-6.154547
1448102420931	-3.019256591796875	-3.785003662109375	9.230422973632813	-8.248985567694442	0	19.750977	6.92749	-25.527954	274.6604	18.110714	-4.878052
1448102420971	-2.474151611328125	-3.006622314453125	10.111160278320313	-7.654766746111804	0	18.899536	7.437134	-25.030518	276.97723	15.937668	-5.1110353
1448102421012	-1.038787841796875	-2.939971923828125	10.084976196289063	-7.335524033813597	0	19.410706	4.548645	-27.5177	280.5639	12.204164	-2.8326364
1448102421052	-0.472259521484375	-1.809295654296875	9.658889770507813	-7.09047507748142	0	16.682434	5.908203	-29.17633	284.6306	9.670766	-3.1676688
1448102421092	-0.593658447265625	-1.154693603515625	9.654129028320313	-6.994878645110958	0	17.704773	5.908203	-28.512573	287.13647	9.667358	-4.695528
1448102421132	0.746490478515625	-0.407257080078125	9.525588989257813	-6.665768519691749	0	17.193604	7.437134	-25.361633	293.587	8.447751	-6.590861
1448102421172	1.205902099609375	-0.143035888671875	8.356826782226563	-6.737448163879137	0	18.04657	8.627319	-26.191711	295.3194	5.638068	-7.1570287
1448102421213	0.727447509765625	-0.554840087890625	9.070938110351563	-6.766280027986106	0	19.581604	6.4178467	-25.030518	295.87982	4.748923	-7.9148912
1448102421253	-1.429168701171875	-0.926177978515625	9.868362426757813	-7.06561190315056	0	18.728638	6.248474	-26.191711	295.98917	3.708533	-11.564681
1448102421293	-1.374420166015625	0.456817626953125	9.263748168945313	-6.917630351512357	0	20.94574	6.0775757	-25.694275	295.26965	3.259641	-12.779603
1448102421333	-0.643646240234375	-2.13623046875E-4	8.699600219726563	-6.968336383553263	0	20.092773	5.908203	-23.538208	294.69708	3.375463	-12.1098385
1448102421374	-0.972137451171875	-0.702423095703125	8.559158325195313	-7.182748293382358	0	20.94574	6.0775757	-24.035645	293.96387	3.9531302	-12.051606
1448102421414	-1.086395263671875	-1.268951416015625	7.8950347900390625	-7.452945796351647	0	20.263672	5.7388306	-23.371887	294.28064	4.001088	-13.265424
1448102421454	-1.900482177734375	-0.026397705078125	8.516311645507813	-7.239611148700619	0	21.45691	5.227661	-22.87445	295.39587	3.0155723	-13.137504
1448102421494	-3.571502685546875	-0.488189697265625	9.473220825195313	-7.479900955778162	0	21.627808	4.3792725	-24.035645	294.70844	0.72925985	-11.202121
1448102421534	-2.869293212890625	0.237823486328125	9.408950805664063	-7.203240424547242	0	20.94574	3.6987305	-26.358032	291.86423	-1.3249208	-10.557509
1448102421575	-1.631500244140625	0.549652099609375	10.294448852539063	-6.77137336793316	0	20.774841	0.8102417	-24.864197	290.97498	-1.0342065	-12.090175
1448102421615	-3.038299560546875	0.368743896484375	9.751724243164063	-7.145365591102211	0	22.650146	2.3391724	-23.704529	291.8473	1.5827343	-15.596966
1448102421655	-1.840972900390625	-0.440582275390625	10.511062622070313	-6.937888190443476	0	23.843384	3.529358	-22.543335	290.09268	2.7655437	-16.787931
1448102421695	-1.726715087890625	0.194976806640625	9.054275512695313	-7.0638755823004535	0	24.69635	4.7180176	-21.382141	286.56622	0.78124905	-12.766381
1448102421737	-1.281585693359375	-1.321319580078125	9.013809204101563	-7.274623710485411	0	23.503113	0.13122559	-24.533081	284.47592	-0.7255031	-9.3118925
1448102421778	-3.721466064453125	-1.554595947265625	9.425613403320313	-7.769555230830317	0	20.94574	0.30059814	-25.694275	283.34338	-0.09709643	-12.435534
1448102421818	-3.190643310546875	0.309234619140625	9.285171508789063	-7.276034289060485	0	22.991943	-1.399231	-24.36676	282.15002	-0.70209205	-14.788671
1448102421858	-2.516998291015625	1.625579833984375	8.949539184570313	-6.967917078724877	0	22.309875	-0.71868896	-24.36676	279.75946	-2.8063092	-17.002209
1448102421898	-3.880950927734375	1.497039794921875	7.8260040283203125	-7.473770624433108	0	25.718689	-2.7572632	-20.71991	276.48492	-3.8823311	-22.386702
1448102421939	-4.411773681640625	0.701995849609375	7.9807281494140625	-7.73997223540793	0	26.913452	-2.9281616	-17.900085	273.3913	-4.798102	-26.811562
1448102421979	-5.428192138671875	0.411590576171875	8.042617797851563	-8.067055164316951	0	31.175232	-7.8552246	-13.423157	266.8802	-6.9987717	-33.534824
1448102422019	-7.622894287109375	0.647247314453125	8.025955200195313	-8.781754534800946	0	32.36847	-9.384155	-10.604858	262.26993	-7.841076	-39.08961
1448102422059	-7.465789794921875	0.828155517578125	7.4403839111328125	-8.910637035481342	0	32.36847	-9.384155	-10.604858	260.3346	-7.8292274	-41.215645
1448102422099	-8.208465576171875	-0.876190185546875	9.394668579101563	NaN	0	35.609436	-10.574341	-5.4641724	257.60162	-7.3975353	-44.612682
1448102422140	-7.701446533203125	-0.264434814453125	6.9500274658203125	NaN	0	34.0744	-10.404968	-3.3081055	256.76443	-6.0819497	-47.42217
1448102422180	-7.120635986328125	0.097381591796875	4.6553497314453125	NaN	0	35.26764	-8.874512	-0.15716553	256.3203	-3.302564	-54.23621
1448102422220	-7.858551025390625	0.242584228515625	4.9433746337890625	NaN	0	35.26764	-10.914612	1.499939	256.74448	-1.936376	-58.170002
1448102422260	-7.934722900390625	0.028350830078125	5.6170196533203125	NaN	0	34.92737	-10.23407	4.484558	256.80225	-2.02686	-58.9915
1448102422301	-8.613128662109375	-0.145416259765625	5.3266143798828125	NaN	0	35.09674	-10.404968	4.650879	256.22015	-2.758112	-58.473137
1448102422341	-8.920196533203125	-0.081146240234375	4.9267120361328125	NaN	0	34.0744	-11.083984	4.9819946	256.33453	-2.5077143	-57.698822
1448102422381	-8.791656494140625	0.056915283203125	5.1147613525390625	NaN	0	35.609436	-11.253357	4.1534424	257.07034	-2.0023506	-57.383785
1448102422421	-8.034698486328125	0.299713134765625	4.8719635009765625	NaN	0	34.58557	-8.195496	4.8171997	260.37268	0.8326179	-56.636967
1448102422462	-7.746673583984375	-0.097808837890625	5.2171173095703125	NaN	0	35.438538	-8.026123	4.319763	261.49738	2.1192756	-56.149178
1448102422502	-7.272979736328125	-0.462005615234375	5.3004302978515625	NaN	0	35.438538	-8.364868	3.3248901	261.77713	2.3309257	-56.04765
1448102422542	-7.042083740234375	-0.566741943359375	5.8193511962890625	NaN	0	35.609436	-8.874512	3.8223267	262.95917	2.7252383	-53.015785
1448102422582	-6.573150634765625	-0.469146728515625	6.0978546142578125	NaN	0	35.09674	-7.685852	1.0025024	263.42755	2.3283064	-48.920845
1448102422622	-6.963531494140625	-0.514373779296875	6.4334869384765625	NaN	0	35.609436	-6.4956665	-2.1469116	263.8366	2.3297436	-46.366756
1448102422663	-7.208709716796875	-0.352508544921875	6.9595489501953125	NaN	0	35.09674	-6.666565	-3.6392212	264.8334	3.5284433	-45.96693
1448102422703	-7.703826904296875	-1.283233642578125	6.3763580322265625	NaN	0	34.75647	-4.626465	-1.9821167	266.8797	5.0080376	-46.785473
1448102422743	-7.330108642578125	-1.185638427734375	6.4644317626953125	NaN	0	34.2453	-3.7780762	-2.4795532	270.01532	7.597079	-48.073284
1448102422783	-7.325347900390625	-1.221343994140625	5.9526519775390625	NaN	0	34.75647	-2.9281616	-0.32348633	272.44498	9.668264	-48.249435
1448102422824	-6.861175537109375	-2.311553955078125	5.5384674072265625	NaN	0	34.92737	-1.399231	-1.4846802	273.71924	10.866728	-47.458538
1448102422864	-5.728118896484375	-2.397247314453125	6.0478668212890625	NaN	0	34.58557	-1.05896	-3.805542	275.16824	11.813014	-45.806442
1448102422904	-6.704071044921875	-1.711700439453125	6.4929962158203125	NaN	0	34.75647	1.4907837	-2.6443481	276.81946	12.549282	-44.91891
1448102422944	-7.394378662109375	-2.125885009765625	6.8524322509765625	NaN	0	35.09674	0.8102417	-2.9769897	277.95612	14.199306	-46.384468
1448102422985	-6.851654052734375	-2.568634033203125	6.5215606689453125	NaN	0	33.903503	0.97961426	-2.4795532	279.03278	16.813437	-48.21609
1448102423025	-6.380340576171875	-1.730743408203125	6.2359161376953125	NaN	0	33.903503	-0.03967285	-0.48980713	280.2716	19.041197	-48.780914
1448102423065	-7.108734130859375	-1.595062255859375	6.1073760986328125	NaN	0	34.0744	1.1505127	-1.3183594	281.14413	20.63669	-49.10208
1448102423105	-7.789520263671875	-2.882843017578125	6.7738800048828125	NaN	0	35.77881	3.869629	0.0076293945	283.03027	22.737995	-50.278587
1448102423145	-8.546478271484375	-4.034942626953125	4.7886505126953125	NaN	0	34.0744	1.4907837	2.330017	289.6371	29.623585	-53.55782
1448102423186	-8.106109619140625	-3.625518798828125	3.4461212158203125	NaN	0	34.92737	4.7180176	5.480957	298.85056	39.55667	-56.88236
1448102423226	-7.641937255859375	-3.754058837890625	2.7320098876953125	NaN	0	34.414673	6.587219	11.61499	305.3409	46.239098	-58.686092
1448102423267	-8.294158935546875	-3.554107666015625	3.1009674072265625	NaN	0	34.414673	6.92749	12.609863	316.76965	57.270355	-61.031536
1448102423307	-7.868072509765625	-3.911163330078125	2.5844268798828125	NaN	0	33.221436	8.456421	15.097046	330.49023	70.74995	-62.901733
1448102423347	-7.765716552734375	-3.516021728515625	0.3944854736328125	NaN	0	30.664063	8.287048	20.237732	334.67902	74.94566	-63.01666
1448102423387	-10.096099853515625	-2.923309326171875	-0.1839447021484375	NaN	0	28.959656	8.627319	21.896362	334.03854	75.43212	-62.351875
1448102423428	-9.043975830078125	-2.504364013671875	1.1490631103515625	NaN	0	30.493164	8.117676	20.072937	314.8377	57.601673	-57.6411
1448102423468	-8.184661865234375	-1.947357177734375	3.2295074462890625	NaN	0	31.00586	10.325623	15.927124	304.8474	47.552666	-52.67816
1448102423508	-4.742645263671875	-2.844757080078125	6.1097564697265625	NaN	0	31.517029	7.437134	-4.4692993	284.601	24.15773	-29.884243
1448102423548	-2.219451904296875	-2.406768798828125	9.116165161132813	-7.687651095942185	0	31.34613	9.646606	-12.5946045	279.88715	19.094713	-22.28065
1448102423588	-2.733612060546875	-3.020904541015625	9.078079223632813	-7.983535924858835	0	27.424622	7.096863	-17.071533	278.86368	17.738161	-20.322134
1448102423629	-1.183990478515625	-2.468658447265625	9.358963012695313	-7.417810748744447	0	24.867249	6.587219	-21.879578	278.9277	10.363443	-12.041073
1448102423669	-0.862640380859375	-1.449859619140625	6.5215606689453125	-7.755000460873196	0	22.821045	6.92749	-25.196838	281.03143	5.4787016	-8.484223
1448102423709	0.141876220703125	-0.128753662109375	7.4665679931640625	-7.071697707091199	0	21.627808	2.6794434	-25.694275	282.3379	4.951893	-9.676053
1448102423749	-5.428192138671875	0.371124267578125	12.610549926757813	-7.05824011532986	0	23.161316	4.888916	-23.538208	284.73993	3.654072	-12.418464
1448102423790	-5.961395263671875	0.168792724609375	7.3047027587890625	-8.576925156910754	0	22.479248	3.189087	-25.196838	283.36804	-1.4915634	-10.443303
1448102423830	0.099029541015625	-0.919036865234375	12.722427368164063	-6.3566115878534735	0	22.309875	1.6601563	-25.030518	279.6015	-1.5941684	-9.873543
1448102423870	-3.104949951171875	-0.342987060546875	9.627944946289063	-7.320637825193168	0	22.479248	-1.2283325	-24.864197	274.49106	0.2666388	-11.629447
1448102423910	-1.817169189453125	-0.209686279296875	7.8188629150390625	-7.399941019942986	0	25.378418	-2.078247	-23.704529	267.58936	0.28680113	-15.05601
1448102423950	-2.676483154296875	-0.145416259765625	8.918594360351563	-7.337451372175206	0	25.889587	-4.626465	-23.207092	260.59766	2.1041646	-19.71035
1448102423991	-4.026153564453125	-0.435821533203125	10.465835571289063	-7.3563223680503445	0	28.788757	-7.5164795	-19.392395	253.1778	2.7104602	-24.02937
1448102424031	-1.583892822265625	0.456817626953125	8.035476684570313	-7.178216183039886	0	29.470825	-10.23407	-17.73529	245.8589	0.84746724	-23.75379
1448102424072	-3.535797119140625	-2.363922119140625	7.8617095947265625	-8.40588933878359	0	29.129028	-12.953186	-17.73529	243.22614	0.83600503	-23.848368
1448102424113	-5.016387939453125	-1.533172607421875	8.797195434570313	-8.307388578053343	0	28.44696	-14.99176	-16.740417	236.26204	2.8895304	-27.101782
1448102424153	-5.501983642578125	-0.966644287109375	7.2047271728515625	-8.948637737913803	0	28.44696	-16.012573	-17.402649	229.90207	1.4928312	-28.335346
1448102424193	-4.909271240234375	-0.985687255859375	7.1809234619140625	-8.672596046823331	0	27.935791	-17.201233	-15.910339	221.88542	-1.1185724	-29.458845
1448102424233	-3.059722900390625	4.867645263671875	4.2792510986328125	-7.339380216131108	0	25.718689	-22.468567	-16.740417	215.47488	-4.6946416	-30.918407
1448102424273	-4.845001220703125	1.837432861328125	5.8360137939453125	-8.1248017259581	0	26.571655	-23.997498	-16.574097	215.4341	-7.0954595	-27.257847
1448102424314	-3.804779052734375	-1.357025146484375	7.0071563720703125	-8.44816259884691	0	23.843384	-25.697327	-17.237854	212.41861	-8.916722	-22.718828
1448102424354	-3.845245361328125	3.927398681640625	14.505325317382813	-5.987244211690234	0	20.263672	-27.566528	-19.392395	207.99847	-7.047394	-22.093172
1448102424395	-5.594818115234375	1.132843017578125	7.9521636962890625	-7.938395354188194	0	20.433044	-26.716614	-19.889832	205.66776	-5.3613925	-23.672928
1448102424435	-6.235137939453125	-0.445343017578125	4.3625640869140625	NaN	0	18.899536	-26.20697	-19.06128	200.87206	-5.5100656	-22.379257
1448102424475	-1.079254150390625	-3.375579833984375	7.7165069580078125	NaN	0	16.000366	-28.076172	-22.21222	191.77759	-4.807962	-18.224407
1448102424515	1.258270263671875	-0.523895263671875	13.284194946289063	-6.062461922112238	0	12.760925	-28.926086	-25.694275	180.98381	-3.3711827	-12.759444
1448102424556	3.438690185546875	2.577728271484375	11.303726196289063	-5.644852211711969	0	6.451416	-29.095459	-27.850342	173.36523	-3.7376916	-6.9771066
1448102424596	-1.383941650390625	-1.102325439453125	8.828140258789063	-7.288292399855546	0	-1.5625	-28.245544	-28.015137	169.04175	-2.172575	-2.1280885
1448102424636	4.940704345703125	0.290191650390625	16.447708129882813	-5.150571206491892	0	-2.4139404	-27.397156	-30.171204	166.9964	-0.838468	-0.61092067
1448102424676	1.053558349609375	-0.012115478515625	7.1380767822265625	-6.946614046656817	0	-5.484009	-25.697327	-30.50232	163.63525	-0.38939866	-0.58655244
1448102424717	1.950958251953125	-0.085906982421875	9.918350219726563	-6.373904049401139	0	-7.1884155	-26.376343	-29.840088	159.81018	-1.6364892	-1.0150962
1448102424757	2.484161376953125	-0.785736083984375	9.080459594726563	-6.5234787887598005	0	-7.359314	-26.547241	-29.673767	159.63733	-2.2480025	-1.2114841
1448102424797	1.846221923828125	0.897186279296875	9.020950317382813	-6.376678933778823	0	-6.8481445	-28.756714	-28.845215	161.96246	-7.2912974	-0.1334237
1448102424838	-0.567474365234375	1.456573486328125	5.1790313720703125	-7.343242434975371	0	-7.8704834	-30.455017	-26.522827	163.02869	-10.767296	-0.6881394
1448102424878	-0.527008056640625	0.973358154296875	12.105911254882813	-6.263682931744088	0	-6.5063477	-32.833862	-27.5177	162.86572	-10.712086	-1.5536671
1448102424918	0.146636962890625	2.025482177734375	8.659133911132813	-6.515513089607353	0	-4.801941	-33.174133	-25.196838	162.91821	-10.181026	-2.736009
1448102424958	-5.361541748046875	0.225921630859375	9.075698852539063	-7.8216368428226275	0	-4.9713135	-31.304932	-26.02539	162.04553	-8.052792	-4.9647093
1448102424999	-1.498199462890625	-0.090667724609375	11.527481079101563	-6.966240478405231	0	-5.6533813	-31.983948	-26.358032	160.1593	-6.539794	-6.444419
1448102425039	-1.260162353515625	0.087860107421875	7.7379302978515625	-7.24425184805854	0	-4.460144	-29.43573	-28.512573	152.45697	-6.235194	-6.8209577
1448102425079	-1.667205810546875	-0.892852783203125	9.518447875976563	-7.1687240965074635	0	-7.8704834	-28.756714	-29.17633	145.61752	-7.0008597	-6.0932713
1448102425120	-0.717437744140625	-0.440582275390625	8.673416137695313	-7.065177719838831	0	-8.894348	-28.416443	-28.181458	141.69113	-7.79512	-5.106252
1448102425160	3.738616943359375	1.842193603515625	10.413467407226563	-5.807315319697588	0	-14.520264	-26.887512	-29.01001	130.67535	-9.059294	-1.0677264
1448102425200	2.907867431640625	2.784820556640625	9.977859497070313	-5.847995765506285	0	-17.590332	-25.8667	-28.015137	126.683105	-10.097664	0.9327348
1448102425241	3.636260986328125	2.253997802734375	9.639846801757813	-5.865774503886233	0	-19.805908	-25.697327	-29.17633	126.34412	-10.502881	1.672821
1448102425282	0.675079345703125	1.744598388671875	9.242324829101563	-6.391632567728271	0	-19.976807	-25.527954	-27.684021	127.592834	-11.382651	1.2060627
1448102425322	1.127349853515625	1.875518798828125	9.504165649414063	-6.2700714334876615	0	-21.170044	-26.376343	-26.855469	129.0144	-11.926502	0.5100109
1448102425362	-1.169708251953125	1.623199462890625	9.975479125976563	-6.577208364271366	0	-18.101501	-28.076172	-26.191711	130.12833	-12.204454	-1.0739937
1448102425403	-1.783843994140625	1.535125732421875	9.292312622070313	-6.799343050494095	0	-18.2724	-28.245544	-26.358032	130.29144	-12.53975	-2.3769774
1448102425443	-0.596038818359375	1.287567138671875	10.558670043945313	-6.452468463483012	0	-16.566467	-26.887512	-27.684021	129.73352	-12.624843	-4.7082953
1448102425483	-0.803131103515625	2.465850830078125	7.4475250244140625	-6.788281800906908	0	-15.713501	-26.376343	-28.512573	129.49182	-12.955966	-5.986442
1448102425524	-1.134002685546875	3.260894775390625	9.104263305664063	-6.455308398914261	0	-14.520264	-29.945374	-28.015137	129.92389	-13.717704	-4.516494
1448102425564	-3.409637451171875	1.175689697265625	8.840042114257813	-7.236367644676543	0	-16.566467	-28.926086	-27.352905	129.65668	-13.708208	-5.2185397
1448102425604	-1.305389404296875	0.890045166015625	10.715774536132813	-6.597171655597906	0	-15.884399	-28.926086	-27.352905	127.986115	-14.054721	-3.1535265
1448102425644	2.886444091796875	4.482025146484375	9.313735961914063	-5.839586277314311	0	-17.248535	-27.566528	-27.352905	124.31976	-14.385437	-1.7503507
1448102425684	0.482269287109375	2.430145263671875	8.342544555664063	-6.451758855259266	0	-17.248535	-26.887512	-28.015137	122.03058	-14.352144	-2.9069214
1448102425725	0.429901123046875	1.839813232421875	10.608657836914063	-6.217955103610443	0	-17.590332	-26.20697	-27.684021	122.017426	-14.043175	-2.223858
1448102425765	0.520355224609375	1.896942138671875	8.787673950195313	-6.459217244252375	0	-19.12384	-26.716614	-28.845215	122.00275	-13.597571	-1.9753016
1448102425805	-1.122100830078125	1.716033935546875	9.432754516601563	-6.640105467860348	0	-21.170044	-27.056885	-26.522827	122.03128	-13.213928	-0.73731375
1448102425845	1.789093017578125	2.301605224609375	9.123306274414063	-6.171492777839756	0	-20.999146	-24.508667	-27.020264	120.66318	-12.981679	-0.13412029
1448102425887	2.291351318359375	2.418243408203125	8.578201293945313	-6.161357069754086	0	-21.170044	-25.357056	-26.855469	120.02884	-12.861791	0.043162532
1448102425927	0.170440673828125	1.977874755859375	9.454177856445313	-6.40035671947337	0	-21.170044	-24.337769	-27.5177	119.92786	-12.408524	0.6520765
1448102425968	0.763153076171875	2.049285888671875	9.385147094726563	-6.314095732347587	0	-22.02301	-24.847412	-28.347778	120.45062	-11.583931	1.1392913
1448102426010	0.939300537109375	1.839813232421875	8.963821411132813	-6.37980336455983	0	-21.170044	-22.639465	-26.855469	120.88568	-11.161382	1.337827
1448102426051	0.763153076171875	1.525604248046875	9.420852661132813	-6.384669260585252	0	-22.53418	-23.997498	-28.512573	121.46707	-10.4994135	1.4851028
1448102426091	0.396575927734375	1.358978271484375	9.870742797851563	-6.3968643801798475	0	-22.875977	-23.318481	-29.17633	122.17865	-9.878773	1.629208
1448102426131	0.779815673828125	1.216156005859375	10.356338500976563	-6.292014650251887	0	-22.02301	-22.808838	-28.678894	122.84177	-9.160421	1.6955643
1448102426172	0.506072998046875	1.194732666015625	9.068557739257813	-6.524929175051173	0	-21.681213	-22.468567	-28.015137	123.21338	-8.660575	1.3899397
1448102426212	0.482269287109375	1.354217529296875	9.620803833007813	-6.421738016194151	0	-22.193909	-21.618652	-29.17633	123.477264	-8.023847	1.2290993
1448102426252	0.220428466796875	1.375640869140625	9.532730102539063	-6.470614472681788	0	-21.681213	-22.128296	-29.673767	124.02722	-7.212329	1.0316672
1448102426292	1.603424072265625	0.771026611328125	10.277786254882813	-6.249601695463355	0	-21.852112	-21.618652	-28.845215	124.70477	-6.580199	1.3063662
1448102426332	0.646514892578125	0.835296630859375	9.111404418945313	-6.551877900898017	0	-20.829773	-21.618652	-29.507446	125.51245	-5.9915504	0.45033267
1448102426373	-1.088775634765625	0.528228759765625	9.216140747070313	-6.864560932946281	0	-20.658875	-21.44928	-29.342651	126.50537	-5.4822764	-0.7503363
1448102426413	0.332305908203125	0.754364013671875	10.325393676757813	-6.42842540435921	0	-20.658875	-20.770264	-30.004883	127.22354	-4.789161	-0.77641994
1448102426453	0.853607177734375	0.454437255859375	10.594375610351563	-6.3566115878534735	0	-20.147705	-20.939636	-31.166077	127.95477	-4.838054	-0.041963834
1448102426493	0.951202392578125	1.313751220703125	7.7188873291015625	-6.64687834416023	0	-19.12384	-20.599365	-30.171204	128.98138	-5.614567	0.862362
1448102426533	-0.277069091796875	0.040252685546875	11.068069458007813	-6.515513089607353	0	-20.487976	-21.618652	-29.840088	130.38733	-4.706212	0.46999085
1448102426574	0.939300537109375	0.697235107421875	9.668411254882813	-6.44431701080738	0	-19.805908	-20.939636	-28.845215	131.28424	-3.407912	-0.939117
1448102426614	-1.055450439453125	-0.481048583984375	8.899551391601563	-7.093105506148195	0	-19.294739	-19.74945	-31.332397	133.1159	-2.8512504	-1.6494504
1448102426654	-0.565093994140625	0.194976806640625	11.334671020507813	-6.495323232194594	0	-18.2724	-21.109009	-30.66864	133.90857	-2.174	-0.8458111
1448102426694	0.779815673828125	0.313995361328125	8.630569458007813	-6.688206103590494	0	-19.294739	-21.109009	-29.17633	133.64017	-3.2032406	0.57626927
1448102426735	0.606048583984375	0.256866455078125	9.851699829101563	-6.5332813677608375	0	-20.147705	-21.958923	-30.83496	133.14899	-3.5822577	1.182428
1448102426775	-1.850494384765625	-0.276336669921875	10.327774047851563	-6.942871138329597	0	-20.147705	-21.958923	-30.83496	132.88013	-3.458248	1.2194015
1448102426816	6.283233642578125	0.806732177734375	11.965469360351563	-5.44134683658965	0	-20.317078	-20.089722	-31.994629	125.43591	-3.1854239	0.35108665
1448102426857	3.548187255859375	1.151885986328125	10.344436645507813	-5.927874708400282	0	-22.363281	-20.089722	-30.004883	124.53781	-3.032683	0.42621282
1448102426897	-0.693634033203125	0.554412841796875	10.499160766601563	-6.587913998664158	0	-22.363281	-18.391418	-31.663513	124.76117	-3.1438596	0.5232719
1448102426937	0.315643310546875	0.478240966796875	9.042373657226563	-6.670319091890793	0	-20.829773	-18.901062	-29.507446	124.97305	-3.1142213	0.4161108
1448102426978	0.144256591796875	0.521087646484375	10.273025512695313	-6.499279369795458	0	-22.363281	-18.730164	-29.01001	125.26984	-2.7981887	0.3955112
1448102427018	-0.503204345703125	0.290191650390625	9.649368286132813	-6.617633100250911	0	-20.829773	-17.880249	-29.840088	125.39194	-2.6014724	0.23814808
1448102427058	-0.260406494140625	-0.328704833984375	9.696975708007813	-6.7886761474346615	0	-22.53418	-19.580078	-30.171204	125.57922	-2.3520436	0.28508145
1448102427099	0.596527099609375	0.144989013671875	10.111160278320313	-6.5122599459676955	0	-21.170044	-18.22052	-30.171204	125.64197	-2.0598845	0.37944335
1448102427139	-0.069976806640625	0.290191650390625	9.437515258789063	-6.698911131638326	0	-20.658875	-19.070435	-30.999756	125.74884	-1.9014708	0.16968694
1448102427180	0.513214111328125	0.378265380859375	9.137588500976563	-6.639729621666831	0	-21.852112	-17.541504	-32.492065	126.125275	-1.9037445	0.32291907
1448102427220	-0.072357177734375	0.092620849609375	10.684829711914063	-6.534736099439791	0	-20.147705	-18.901062	-30.83496	126.42468	-1.9744021	0.41752037
1448102427260	-0.393707275390625	-0.283477783203125	10.256362915039063	-6.7115753060039545	0	-21.51184	-18.22052	-30.50232	126.45825	-2.255397	0.25654784
1448102427301	-0.143768310546875	0.197357177734375	9.289932250976563	-6.749882623767113	0	-20.658875	-20.429993	-30.999756	126.16913	-3.0359993	-0.21548687
1448102427341	-0.265167236328125	0.187835693359375	10.353958129882813	-6.600882204105598	0	-19.976807	-19.74945	-31.332397	125.49481	-3.7987733	-1.0001947
1448102427381	-0.238983154296875	0.730560302734375	11.358474731445313	-6.364209568935735	0	-20.487976	-20.26062	-29.507446	124.68292	-4.680507	-1.6116979
1448102427421	0.865509033203125	1.470855712890625	8.573440551757813	-6.503600560422154	0	-19.63501	-19.410706	-30.999756	124.068756	-6.394089	-1.9258101
1448102427462	-1.621978759765625	0.259246826171875	9.823135375976563	-6.897922733202803	0	-19.976807	-20.770264	-29.673767	123.99072	-7.5939927	-2.3356314
1448102427502	0.251373291015625	1.742218017578125	10.184951782226563	-6.316823060019406	0	-19.294739	-21.109009	-30.66864	123.82904	-8.460134	-2.4421465
1448102427542	0.677459716796875	2.703887939453125	5.7931671142578125	-6.777653851500853	0	-19.294739	-21.44928	-29.01001	123.84668	-9.966683	-2.310473
1448102427583	-0.950714111328125	2.077850341796875	11.215652465820313	-6.293369478629524	0	-20.487976	-22.299194	-29.17633	123.92435	-9.85176	-1.9276359
1448102427623	-0.688873291015625	1.865997314453125	8.318740844726563	-6.725063878491108	0	-21.852112	-21.958923	-28.512573	123.99371	-9.647533	-1.7090319
1448102427663	0.370391845703125	1.451812744140625	8.742446899414063	-6.556269018506297	0	-20.658875	-22.468567	-29.01001	124.01138	-9.695016	-0.49441665
1448102427703	0.046661376953125	1.668426513671875	10.451553344726563	-6.318528722724897	0	-20.999146	-22.808838	-28.678894	123.80347	-9.2498865	0.92033887
1448102427744	0.703643798828125	1.454193115234375	8.002151489257813	-6.619126328999671	0	-22.705078	-22.128296	-28.678894	123.5802	-9.625439	1.3364917
1448102427784	0.467987060546875	1.775543212890625	11.091873168945313	-6.154832832944738	0	-22.02301	-21.44928	-29.01001	123.71625	-9.29803	3.7271576
1448102427824	1.113067626953125	1.832672119140625	8.832901000976563	-6.392329679523154	0	-23.04535	-22.468567	-28.678894	123.56436	-9.120021	4.8352575
1448102427864	1.501068115234375	0.773406982421875	9.725540161132813	-6.342496182446451	0	-24.92218	-20.26062	-26.855469	123.14435	-9.018462	4.821942
1448102427905	1.263031005859375	1.754119873046875	9.613662719726563	-6.252614406524302	0	-26.28479	-21.279907	-27.186584	123.127045	-8.347756	6.613299
1448102427945	1.577239990234375	1.154266357421875	9.161392211914063	-6.357991793843448	0	-26.626587	-22.299194	-28.512573	123.087494	-8.245882	7.492958
1448102427985	2.131866455078125	1.166168212890625	9.766006469726563	-6.19217872714105	0	-26.626587	-21.958923	-26.191711	123.12201	-8.237937	8.153208
1448102428025	2.443695068359375	0.775787353515625	9.744583129882813	-6.206035384310147	0	-25.77362	-19.74945	-27.684021	123.47693	-7.6797943	9.961338
1448102428065	1.881927490234375	1.123321533203125	10.608657836914063	-6.116897185361459	0	-27.479553	-19.410706	-25.694275	123.93967	-7.502256	11.111711
1448102428107	1.603424072265625	1.206634521484375	9.918350219726563	-6.238910437625414	0	-28.501892	-20.770264	-25.694275	123.922485	-7.6675873	11.229304
1448102428147	2.805511474609375	0.854339599609375	10.211135864257813	-6.0822226106265	0	-28.161621	-19.070435	-27.020264	123.295166	-8.285478	11.736328
1448102428188	1.648651123046875	1.173309326171875	10.296829223632813	-6.184613021440915	0	-28.501892	-19.74945	-24.699402	123.76895	-8.619011	11.173948
1448102428228	1.467742919921875	1.946929931640625	8.330642700195313	-6.3794560649196805	0	-27.819824	-21.78955	-25.030518	123.823425	-9.281058	10.679943
1448102428268	2.300872802734375	1.818389892578125	9.454177856445313	-6.122384947677753	0	-27.137756	-20.089722	-26.02539	123.271484	-9.805271	10.920434
1448102428309	2.795989990234375	1.337554931640625	9.149490356445313	-6.162010135787524	0	-27.137756	-20.089722	-26.02539	123.11243	-10.067685	10.866612
1448102428349	2.596038818359375	2.006439208984375	8.585342407226563	-6.175096119433395	0	-28.330994	-20.26062	-25.85907	123.420166	-10.653961	10.872776
1448102428390	1.132110595703125	1.256622314453125	9.089981079101563	-6.418574913130392	0	-28.67279	-20.939636	-23.869324	123.905	-11.197329	10.517473
1448102428430	2.572235107421875	3.282318115234375	9.961196899414063	-5.829697924002866	0	-26.28479	-22.639465	-26.522827	124.73901	-11.629613	10.426496
1448102428470	3.464874267578125	2.694366455078125	8.885269165039063	-5.927874708400282	0	-27.308655	-22.639465	-23.869324	125.95682	-12.281048	11.907803
1448102428510	2.548431396484375	2.668182373046875	9.354202270507813	-5.9894261711000025	0	-28.501892	-24.168396	-24.699402	127.345184	-12.792799	12.997787
1448102428551	2.258026123046875	1.068572998046875	9.339920043945313	-6.2475946382396295	0	-28.161621	-23.828125	-22.709656	128.66388	-13.224223	12.753336
1448102428591	1.189239501953125	1.946929931640625	9.889785766601563	-6.197451180652797	0	-26.966858	-23.318481	-23.869324	129.53427	-13.798731	12.873144
1448102428631	-1.074493408203125	1.401824951171875	8.397293090820313	-6.85285244244044	0	-27.819824	-22.808838	-22.045898	129.67297	-14.290029	13.0182
1448102428671	2.922149658203125	3.415618896484375	9.451797485351563	-5.832991307634952	0	-27.648926	-25.697327	-22.543335	128.42142	-13.677679	12.062958
1448102428712	2.241363525390625	3.570343017578125	8.242568969726563	-6.057696758691241	0	-27.648926	-23.997498	-25.196838	127.84509	-13.206298	13.08258
1448102428752	4.512237548828125	4.603424072265625	8.613906860351563	-5.595950586733049	0	-28.161621	-23.828125	-24.36676	127.732544	-12.37863	14.31334
1448102428792	2.741241455078125	2.680084228515625	8.035476684570313	-6.138248548984971	0	-28.501892	-22.128296	-24.035645	128.47656	-11.500427	14.357075
1448102428832	2.598419189453125	2.884796142578125	10.106399536132813	-5.858231366226797	0	-27.648926	-22.97821	-24.533081	129.40466	-10.415761	14.5259695
1448102428873	3.114959716796875	1.618438720703125	8.542495727539063	-6.162989954311923	0	-28.330994	-20.26062	-25.527954	130.2623	-9.601518	14.358479
1448102428914	0.234710693359375	0.518707275390625	10.815750122070313	-6.40525201856377	0	-29.18396	-22.468567	-26.02539	131.2583	-8.357455	13.27483
1448102428954	1.532012939453125	-0.207305908203125	8.047378540039063	-6.74521378273027	0	-26.797485	-21.78955	-24.699402	131.4303	-7.54657	12.3982115
1448102428994	1.374908447265625	0.306854248046875	9.408950805664063	-6.4270164334924615	0	-26.28479	-19.92035	-28.181458	131.44238	-7.2962675	12.763247
1448102429035	1.422515869140625	0.125946044921875	8.694839477539063	-6.606084199132651	0	-27.308655	-20.26062	-28.512573	131.25256	-7.1139603	12.611808
1448102429075	2.346099853515625	0.675811767578125	8.556777954101563	-6.403852643055128	0	-28.161621	-19.410706	-29.01001	130.69186	-6.765384	12.876714
1448102429115	4.471771240234375	0.954315185546875	9.851699829101563	-5.897919115752373	0	-28.501892	-17.370605	-27.020264	130.15662	-6.718232	13.84931
1448102429155	3.381561279296875	1.330413818359375	9.051895141601563	-6.096630965188817	0	-28.330994	-16.860962	-26.522827	130.29706	-6.716108	13.874824
1448102429196	3.105438232421875	1.151885986328125	8.544876098632813	-6.228583745511654	0	-28.161621	-16.351318	-26.02539	130.35721	-6.615278	13.777745
1448102429236	2.734100341796875	1.235198974609375	8.923355102539063	-6.215965735842021	0	-29.354858	-15.501404	-26.191711	130.5448	-6.5207567	13.914648
1448102429276	2.008087158203125	1.094757080078125	9.958816528320313	-6.192508030140687	0	-29.013062	-16.181946	-26.191711	130.72766	-6.4266067	13.9799385
1448102429316	1.943817138671875	0.399688720703125	9.730300903320313	-6.331861626727083	0	-28.843689	-16.012573	-23.040771	131.26874	-6.1469703	14.204004
1448102429356	2.222320556640625	0.499664306640625	9.225662231445313	-6.350063135633215	0	-30.207825	-16.351318	-23.371887	131.07477	-5.8676376	14.140831
1448102429397	2.991180419921875	1.220916748046875	9.256607055664063	-6.136626672626514	0	-27.648926	-15.841675	-21.879578	130.52802	-5.513184	13.889815
1448102429437	2.367523193359375	0.642486572265625	10.899063110351563	-6.077113054590945	0	-27.648926	-15.841675	-21.548462	130.25531	-5.409922	13.738563
1448102429477	2.327056884765625	0.659149169921875	9.218521118164063	-6.313073533397583	0	-28.67279	-16.860962	-21.548462	130.2229	-5.5108037	13.633738
1448102429517	3.110198974609375	0.373504638671875	9.892166137695313	-6.149296382445591	0	-28.67279	-17.201233	-21.217346	130.16693	-5.465383	13.498616
1448102429558	3.067352294921875	0.497283935546875	8.175918579101563	-6.380150699401739	0	-27.819824	-18.051147	-21.382141	130.26434	-5.399884	13.224792
1448102429598	2.293731689453125	1.068572998046875	8.454421997070313	-6.369053391651203	0	-27.819824	-18.391418	-20.387268	130.3252	-5.514003	13.040955
1448102429638	1.282073974609375	0.154510498046875	8.830520629882813	-6.602367626632072	0	-26.797485	-19.410706	-21.051025	129.88623	-5.480885	12.161358
1448102429678	1.698638916015625	-0.126373291015625	10.203994750976563	-6.374944368096273	0	-27.819824	-19.070435	-22.045898	128.95282	-4.846481	10.86531
1448102429718	1.962860107421875	-0.621490478515625	8.694839477539063	-6.638602350625034	0	-26.455688	-19.070435	-21.714783	128.28986	-4.3599563	10.4757805
1448102429759	2.412750244140625	-0.347747802734375	9.451797485351563	-6.412958898357427	0	-25.944519	-21.279907	-22.87445	127.83014	-3.4597824	10.426584
1448102429799	0.375152587890625	-0.776214599609375	13.134231567382813	-6.238243297585839	0	-26.626587	-19.580078	-24.864197	127.5813	-2.6926286	10.007857
1448102429839	1.805755615234375	-0.057342529296875	9.066177368164063	-6.518045537306465	0	-25.77362	-18.730164	-25.030518	127.08206	-2.9204044	9.470982
1448102429879	2.481781005859375	0.218780517578125	9.225662231445313	-6.353163486194829	0	-27.648926	-18.901062	-23.869324	127.010315	-2.989072	9.646269
1448102429919	1.903350830078125	0.416351318359375	9.616043090820313	-6.351785209123676	0	-27.137756	-19.410706	-23.371887	126.993195	-3.023475	9.009019
1448102429960	0.982147216796875	0.468719482421875	9.687454223632813	-6.469187690612446	0	-26.115417	-18.051147	-24.035645	127.16025	-3.247119	8.428355
1448102430000	1.165435791015625	0.578216552734375	9.570816040039063	-6.442901383329793	0	-26.966858	-18.560791	-24.533081	127.40973	-3.332111	8.208902
1448102430040	1.260650634765625	0.828155517578125	9.332778930664063	-6.4270164334924615	0	-26.626587	-19.239807	-24.864197	127.59686	-3.3679984	8.077669
1448102430080	1.446319580078125	1.023345947265625	9.523208618164063	-6.343527066100425	0	-26.115417	-19.070435	-23.704529	127.67908	-3.4980333	8.147837
1448102430121	1.455841064453125	1.109039306640625	9.437515258789063	-6.34215262272858	0	-25.602722	-18.901062	-22.543335	127.77838	-3.6503618	8.262165
1448102430161	1.620086669921875	0.580596923828125	9.727920532226563	-6.352818865362693	0	-26.455688	-20.770264	-23.704529	127.83722	-3.6225538	8.310115
1448102430201	1.724822998046875	0.566314697265625	9.142349243164063	-6.436538418444469	0	-26.28479	-19.239807	-22.21222	127.92474	-3.5485592	8.299294
1448102430241	1.653411865234375	0.540130615234375	9.616043090820313	-6.370092241927997	0	-26.455688	-19.070435	-23.371887	128.05054	-3.57307	8.395992
1448102430282	1.758148193359375	0.578216552734375	9.608901977539063	-6.350407481688438	0	-26.797485	-19.070435	-25.030518	128.3581	-3.5279565	8.442318
1448102430322	1.210662841796875	0.575836181640625	9.475601196289063	-6.419628952592514	0	-26.797485	-19.070435	-25.030518	128.45935	-3.5032008	8.395477
1448102430362	1.165435791015625	0.461578369140625	9.661270141601563	-6.4467957941335605	0	-25.944519	-19.580078	-22.543335	128.6261	-3.462645	8.236666
1448102430402	1.370147705078125	0.535369873046875	9.580337524414063	-6.41752120148571	0	-26.626587	-18.22052	-23.869324	128.53363	-3.396173	8.04709
1448102430443	1.382049560546875	0.506805419921875	9.454177856445313	-6.438658071030014	0	-25.091553	-21.109009	-23.704529	128.35898	-3.419172	7.992055
1448102430483	1.379669189453125	0.461578369140625	9.511306762695313	-6.437244821143211	0	-25.77362	-18.730164	-24.035645	128.375	-3.4171073	7.975212
1448102430523	1.612945556640625	0.632965087890625	9.387527465820313	-6.395817375681709	0	-24.751282	-19.070435	-24.035645	128.31866	-3.397614	8.02931
1448102430563	1.670074462890625	0.628204345703125	9.499404907226563	-6.371824357280331	0	-25.944519	-18.901062	-24.533081	128.41943	-3.4316118	8.184795
1448102430603	1.582000732421875	0.504425048828125	9.570816040039063	-6.392329679523154	0	-27.137756	-19.74945	-24.699402	128.50134	-3.409886	8.311218
1448102430644	1.608184814453125	0.561553955078125	9.613662719726563	-6.373904049401139	0	-25.944519	-20.599365	-23.869324	128.6015	-3.397325	8.451593
1448102430684	1.391571044921875	0.483001708984375	9.635086059570313	-6.414011192986017	0	-25.091553	-19.410706	-24.36676	128.7659	-3.3897905	8.544415
1448102430724	1.436798095703125	0.566314697265625	9.411331176757813	-6.428073106555674	0	-25.944519	-20.26062	-24.201965	128.88623	-3.363889	8.552764
1448102430764	1.472503662109375	0.568695068359375	9.613662719726563	-6.392678288801086	0	-24.92218	-18.901062	-24.201965	128.97968	-3.3850455	8.621158
1448102430804	1.565338134765625	0.549652099609375	9.537490844726563	-6.3930269336805505	0	-25.77362	-19.070435	-25.030518	128.98676	-3.437719	8.702436
1448102430845	1.579620361328125	0.644866943359375	9.373245239257813	-6.401055617093602	0	-26.115417	-20.770264	-24.699402	128.99551	-3.502742	8.812218
1448102430885	1.451080322265625	0.680572509765625	9.475601196289063	-6.3996579652244865	0	-26.626587	-18.22052	-23.869324	129.02292	-3.532693	8.77487
1448102430925	1.341583251953125	0.604400634765625	9.473220825195313	-6.427368621133784	0	-25.091553	-19.070435	-24.699402	128.92102	-3.5433822	8.700741
1448102430965	1.355865478515625	0.673431396484375	9.673171997070313	-6.385712853064236	0	-25.944519	-20.939636	-22.87445	128.943	-3.51601	8.6669445
1448102431006	1.334442138671875	0.516326904296875	9.601760864257813	-6.422441329484304	0	-26.455688	-19.070435	-24.36676	128.89252	-3.5317168	8.6332035
1448102431046	1.496307373046875	0.559173583984375	9.608901977539063	-6.39128406518953	0	-25.77362	-20.089722	-24.035645	128.7609	-3.5057137	8.610133
1448102431086	1.534393310546875	0.497283935546875	9.518447875976563	-6.408052498188335	0	-25.944519	-19.580078	-23.538208	128.69513	-3.4849508	8.675763
1448102431126	1.658172607421875	0.542510986328125	9.535110473632813	-6.3808454747336585	0	-26.115417	-20.089722	-23.704529	128.578	-3.4786675	8.738602
1448102431166	1.786712646484375	0.701995849609375	9.368484497070313	-6.363172493406596	0	-25.091553	-20.089722	-23.040771	128.52823	-3.5048287	8.855176
1448102431207	1.891448974609375	0.771026611328125	9.397048950195313	-6.333917386208061	0	-25.77362	-19.410706	-23.704529	128.51794	-3.5854368	9.034857
1448102431247	1.689117431640625	0.537750244140625	9.566055297851563	-6.3725174480463025	0	-25.262451	-18.901062	-23.207092	128.55823	-3.6182342	9.142138
1448102431287	1.562957763671875	0.571075439453125	9.470840454101563	-6.400007324433025	0	-25.602722	-19.580078	-23.869324	128.64151	-3.579039	9.142801
1448102431328	1.448699951171875	0.537750244140625	9.651748657226563	-6.3951195512008185	0	-25.944519	-19.580078	-23.538208	128.74005	-3.5525403	9.114391
1448102431370	1.424896240234375	0.490142822265625	9.489883422851563	-6.429482518278116	0	-26.115417	-18.730164	-24.699402	128.82977	-3.491121	9.041029
1448102431410	1.451080322265625	0.497283935546875	9.535110473632813	-6.39651534296228	0	-27.137756	-20.089722	-23.040771	128.82214	-3.4547088	9.005593
1448102431450	1.465362548828125	0.554412841796875	9.473220825195313	-6.4164678173527925	0	-25.262451	-19.239807	-24.533081	128.84918	-3.437681	8.983594
1448102431491	1.586761474609375	0.671051025390625	9.489883422851563	-6.379108800470588	0	-25.77362	-18.730164	-24.035645	128.86401	-3.4319715	9.00645
1448102431531	1.512969970703125	0.575836181640625	9.599380493164063	-6.38780099369562	0	-25.43335	-20.770264	-24.699402	128.88599	-3.4380474	9.028456
1448102431571	1.658172607421875	0.649627685546875	9.404190063476563	-6.3843214671442485	0	-27.479553	-20.089722	-23.704529	129.04828	-3.427203	9.046397
1448102431611	1.629608154296875	0.621063232421875	9.394668579101563	-6.394073082037254	0	-25.091553	-18.730164	-24.36676	129.155	-3.4231806	9.1027565
1448102431651	1.708160400390625	0.692474365234375	9.366104125976563	-6.376331950473613	0	-26.115417	-19.74945	-25.030518	129.27136	-3.4309483	9.217351
1448102431691	2.150909423828125	0.578216552734375	9.373245239257813	-6.3277537522016996	0	-27.990723	-19.580078	-23.207092	129.49615	-3.4214497	9.403022
1448102431732	1.424896240234375	0.147369384765625	9.968338012695313	-6.409453603729254	0	-26.115417	-20.089722	-25.361633	129.87717	-3.3054528	9.510162
1448102431772	0.922637939453125	0.011688232421875	9.804092407226563	-6.529647363921541	0	-24.580383	-19.239807	-24.201965	130.06982	-3.1177142	9.276855
1448102431812	0.779815673828125	0.087860107421875	10.530105590820313	-6.430539963201141	0	-27.137756	-19.74945	-25.361633	130.1325	-3.0755525	9.006437
1448102431853	1.086883544921875	0.164031982421875	10.668167114257813	-6.354197555092749	0	-25.77362	-18.730164	-23.704529	129.98056	-3.4738102	8.867461
1448102431893	1.303497314453125	0.728179931640625	8.275894165039063	-6.596059327288811	0	-25.944519	-20.599365	-24.201965	129.79706	-4.045704	8.84805
1448102431933	1.653411865234375	1.366119384765625	7.8355255126953125	-6.511898683841688	0	-27.479553	-21.44928	-24.035645	129.7037	-4.2734275	8.897536
1448102431973	2.139007568359375	1.301849365234375	8.492507934570313	-6.352129726837403	0	-25.77362	-20.089722	-22.045898	129.50183	-4.572602	9.130392
1448102432014	1.622467041015625	0.361602783203125	11.886917114257813	-6.0822226106265	0	-27.308655	-18.560791	-21.879578	129.50739	-4.5686564	9.353885
1448102432054	1.762908935546875	0.323516845703125	9.566055297851563	-6.3930269336805505	0	-26.626587	-19.580078	-23.207092	129.39511	-4.9196043	9.488979
1448102432094	1.665313720703125	1.392303466796875	7.9474029541015625	-6.4892184811509	0	-25.43335	-19.74945	-21.714783	129.35565	-5.185452	9.487073
1448102432134	1.943817138671875	1.185211181640625	7.8640899658203125	-6.491012829356945	0	-26.797485	-20.770264	-22.377014	129.24176	-5.1858993	9.30596
1448102432174	1.981903076171875	0.940032958984375	8.809097290039063	-6.381540391001156	0	-25.944519	-19.580078	-23.207092	129.18225	-4.875438	9.397553
1448102432214	1.786712646484375	0.842437744140625	10.318252563476563	-6.20835001506266	0	-27.479553	-19.74945	-23.371887	129.27417	-4.35421	9.440391
1448102432255	0.732208251953125	-0.523895263671875	12.296340942382813	-6.270407990130617	0	-26.28479	-20.26062	-22.87445	129.37115	-4.248245	9.109998
1448102432295	1.627227783203125	0.666290283203125	9.551773071289063	-6.455663560075473	0	-26.28479	-20.26062	-22.87445	129.35205	-4.432838	8.96694
1448102432335	2.034271240234375	1.254241943359375	8.580581665039063	-6.361444727935646	0	-24.751282	-20.770264	-23.704529	129.33798	-4.6865864	9.295218
1448102432376	1.810516357421875	1.204254150390625	8.390151977539063	-6.429482518278116	0	-26.797485	-19.74945	-21.382141	129.35886	-4.734999	9.113131
1448102432416	1.377288818359375	0.904327392578125	9.846939086914063	-6.323992457101782	0	-26.115417	-19.74945	-22.377014	129.4336	-4.5197506	9.057815
1448102432456	1.082122802734375	-0.057342529296875	12.141616821289063	-6.178046969558449	0	-26.797485	-19.070435	-24.36676	129.5102	-4.431355	8.959891
1448102432497	1.365386962890625	0.813873291015625	9.708877563476563	-6.358682104025269	0	-25.77362	-19.070435	-23.704529	129.57114	-4.717972	9.021047
1448102432537	1.755767822265625	1.425628662109375	8.002151489257813	-6.4624187887566835	0	-25.944519	-19.580078	-22.21222	129.58179	-5.0035458	9.124105
1448102432577	1.417755126953125	1.170928955078125	8.352066040039063	-6.498919525396941	0	-25.43335	-19.410706	-22.377014	129.58234	-5.0601826	8.937254
1448102432618	1.601043701171875	1.054290771484375	9.482742309570313	-6.322625720211677	0	-25.77362	-20.089722	-22.709656	129.5271	-4.896849	8.962214
1448102432658	1.448699951171875	0.716278076171875	10.889541625976563	-6.193496119218226	0	-26.455688	-20.089722	-22.377014	129.51749	-4.6201735	8.9204445
1448102432698	0.965484619140625	0.225921630859375	10.744338989257813	-6.351785209123676	0	-25.091553	-18.391418	-22.709656	129.4779	-4.6311145	8.821477
1448102432738	1.758148193359375	1.118560791015625	8.899551391601563	-6.374944368096273	0	-27.137756	-19.410706	-22.709656	129.4107	-4.8879657	9.041088
1448102432779	1.786712646484375	1.170928955078125	7.9688262939453125	-6.501079179386732	0	-25.602722	-20.26062	-24.201965	129.28528	-5.021092	9.045016
1448102432819	1.734344482421875	0.956695556640625	9.606521606445313	-6.299812061514438	0	-25.43335	-19.070435	-22.709656	129.2351	-4.8273606	9.032445
1448102432859	1.515350341796875	0.880523681640625	9.232803344726563	-6.39651534296228	0	-26.966858	-19.580078	-23.207092	129.2232	-4.6828303	9.039987
1448102432899	0.853607177734375	-0.283477783203125	10.908584594726563	-6.418574913130392	0	-26.28479	-18.560791	-23.538208	129.14612	-4.508897	8.880347
1448102432940	1.667694091796875	1.244720458984375	8.987625122070313	-6.356956587580164	0	-26.28479	-19.92035	-23.869324	129.09863	-4.9108324	9.1453285
1448102432980	1.701019287109375	1.306610107421875	7.8759918212890625	-6.507566624021467	0	-26.455688	-19.74945	-22.709656	129.06537	-5.093388	9.344179
1448102433020	1.586761474609375	1.247100830078125	8.218765258789063	-6.482050772890171	0	-26.626587	-17.880249	-22.87445	128.9524	-5.147147	9.292099
1448102433060	1.643890380859375	1.013824462890625	9.306594848632813	-6.34765367309887	0	-26.797485	-23.149109	-22.709656	128.9472	-4.851261	9.380327
1448102433101	1.655792236328125	0.978118896484375	10.746719360351563	-6.148645586237567	0	-26.626587	-19.92035	-22.87445	129.03195	-4.60632	9.366995
1448102433141	1.105926513671875	0.518707275390625	9.770767211914063	-6.4308925184523815	0	-26.28479	-19.92035	-23.207092	129.0755	-4.806454	9.184567
1448102433181	1.363006591796875	1.387542724609375	7.8521881103515625	-6.550415510945699	0	-26.966858	-19.92035	-23.538208	129.08444	-5.22871	9.622069
1448102433222	2.500823974609375	1.761260986328125	6.8690948486328125	-6.470257719961827	0	-27.648926	-19.92035	-21.879578	128.96301	-5.3376	9.602877
1448102433262	1.805755615234375	1.237579345703125	8.542495727539063	-6.402803488973443	0	-26.966858	-19.92035	-22.543335	128.86487	-5.1578126	9.588204
1448102433302	1.629608154296875	1.042388916015625	11.134719848632813	-6.090860918882313	0	-26.626587	-19.580078	-22.21222	128.94156	-4.636905	9.604677
1448102433342	0.791717529296875	-0.697662353515625	12.217788696289063	-6.297776283699861	0	-27.137756	-20.089722	-23.040771	128.98935	-4.597326	9.422481
1448102433383	1.629608154296875	1.044769287109375	8.928115844726563	-6.40035671947337	0	-25.944519	-18.901062	-23.869324	129.04327	-5.062963	9.681207
1448102433423	2.760284423828125	1.927886962890625	6.6429595947265625	-6.440425467768298	0	-25.262451	-20.599365	-22.87445	128.94427	-5.3729024	9.811874
1448102433463	1.715301513671875	1.201873779296875	7.9521636962890625	-6.509731942394749	0	-25.602722	-18.901062	-22.21222	128.9241	-5.282076	9.697673
1448102433504	1.696258544921875	0.940032958984375	8.809097290039063	-6.423496573566615	0	-25.43335	-19.410706	-23.040771	129.0022	-4.8769894	9.732673
1448102433544	1.520111083984375	-0.352508544921875	15.417007446289063	-5.734179345726726	0	-26.115417	-20.429993	-23.371887	129.1651	-4.3001213	9.780676
1448102433584	1.005950927734375	0.202117919921875	9.473220825195313	-6.5383757615409	0	-25.602722	-19.239807	-22.87445	129.31314	-4.614574	9.754967
1448102433624	1.577239990234375	1.256622314453125	7.9426422119140625	-6.523841325256825	0	-27.479553	-19.070435	-23.040771	129.38132	-4.937098	10.142398
1448102433664	2.993560791015625	1.563690185546875	7.5570220947265625	-6.3260435687251	0	-26.455688	-19.410706	-21.714783	129.185	-5.079461	10.028005
1448102433705	1.651031494140625	0.875762939453125	8.749588012695313	-6.44856747390841	0	-28.161621	-20.089722	-23.371887	129.2536	-4.9217644	10.088899
1448102433745	1.603424072265625	1.387542724609375	11.925003051757813	-5.944480135387715	0	-26.966858	-19.239807	-23.207092	129.39636	-4.4702883	10.150192
1448102433785	0.941680908203125	-0.457244873046875	11.060928344726563	-6.408752978740388	0	-27.479553	-20.089722	-22.709656	129.51459	-4.634361	10.109735
1448102433825	1.639129638671875	1.154266357421875	8.813858032226563	-6.3996579652244865	0	-25.602722	-18.901062	-21.879578	129.67038	-5.0659995	10.365859
1448102433866	2.576995849609375	1.716033935546875	6.8786163330078125	-6.4641987496765045	0	-27.648926	-19.239807	-21.879578	129.60223	-5.336595	10.360546
1448102433906	1.584381103515625	1.328033447265625	8.183059692382813	-6.475613022666695	0	-25.43335	-20.770264	-22.709656	129.5784	-5.3141603	10.393085
1448102433946	1.653411865234375	1.025726318359375	8.811477661132813	-6.416818909025752	0	-26.28479	-18.901062	-23.207092	129.73474	-5.0284796	10.405517
1448102433987	2.684112548828125	0.559173583984375	14.507705688476563	-5.593407407524661	0	-26.966858	-19.580078	-23.538208	129.88513	-4.556811	10.499137
1448102434027	1.560577392578125	0.863861083984375	9.308975219726563	-6.3811929152451	0	-25.944519	-18.560791	-22.87445	130.0029	-5.024766	10.736329
1448102434067	1.748626708984375	1.175689697265625	8.337783813476563	-6.450694724261937	0	-25.944519	-18.560791	-22.87445	129.91293	-5.1636677	10.849756
1448102434107	1.660552978515625	1.263763427734375	8.259231567382813	-6.4624187887566835	0	-26.115417	-21.109009	-22.377014	129.63297	-5.3513155	10.723261
1448102434147	2.019989013671875	1.194732666015625	8.987625122070313	-6.313414233145077	0	-28.501892	-19.74945	-22.377014	129.61246	-5.16617	10.781087
1448102434188	1.979522705078125	1.149505615234375	9.954055786132813	-6.18954538243541	0	-28.501892	-19.74945	-22.377014	129.61716	-4.9831223	10.833093
1448102434228	1.286834716796875	0.225921630859375	10.020706176757813	-6.410504812227127	0	-26.626587	-19.580078	-22.21222	129.5971	-5.1014953	10.810964
1448102434268	2.158050537109375	1.473236083984375	8.311599731445313	-6.350751862054835	0	-26.797485	-19.410706	-23.040771	129.50198	-5.466583	10.985992
1448102434309	2.607940673828125	1.687469482421875	7.5236968994140625	-6.368707177984737	0	-26.797485	-19.410706	-23.040771	129.41608	-5.6201696	10.930747
1448102434349	1.912872314453125	1.408966064453125	8.373489379882813	-6.386756764003785	0	-26.797485	-19.410706	-22.045898	129.24908	-5.608815	10.735524
1448102434389	1.922393798828125	1.075714111328125	9.168533325195313	-6.318528722724897	0	-26.455688	-18.730164	-21.714783	129.2508	-5.2020483	10.777624
1448102434429	1.248748779296875	-0.661956787109375	14.302993774414063	-5.947871483169415	0	-26.626587	-18.901062	-24.201965	129.31812	-4.8583093	10.704546
1448102434469	1.667694091796875	0.871002197265625	9.458938598632813	-6.342839776240954	0	-26.115417	-21.109009	-23.040771	129.36523	-5.2674313	10.7036915
1448102434510	2.407989501953125	1.616058349609375	7.6141510009765625	-6.3951195512008185	0	-25.602722	-18.901062	-22.21222	129.35965	-5.5932083	10.832355
1448102434550	1.798614501953125	1.425628662109375	7.5308380126953125	-6.527105957200439	0	-27.137756	-19.070435	-21.714783	129.27237	-5.7184753	10.612179
1448102434590	1.858123779296875	1.289947509765625	8.456802368164063	-6.400007324433025	0	-27.137756	-20.089722	-22.377014	129.22214	-5.4925823	10.674433
1448102434630	1.972381591796875	1.080474853515625	10.194473266601563	-6.166911866119012	0	-26.626587	-19.580078	-23.538208	129.26343	-4.9131527	10.737518
1448102434670	0.708404541015625	-0.471527099609375	11.832168579101563	-6.332546744721979	0	-25.602722	-19.92035	-22.543335	129.30179	-4.8500724	10.578495
1448102434711	1.955718994140625	0.997161865234375	9.516067504882813	-6.275460189080895	0	-26.797485	-18.730164	-23.040771	129.34186	-5.254921	10.751369
1448102434751	1.927154541015625	1.442291259765625	7.0357208251953125	-6.580895948792486	0	-25.77362	-19.410706	-21.382141	129.22101	-5.5391135	10.717734
1448102434791	1.610565185546875	1.320892333984375	7.9545440673828125	-6.507205875783546	0	-26.626587	-18.901062	-22.87445	129.10306	-5.5765333	10.4639635
1448102434831	1.760528564453125	1.161407470703125	8.794815063476563	-6.3836259862755576	0	-27.137756	-19.410706	-22.045898	129.02832	-5.2864842	10.650716
1448102434872	3.036407470703125	0.373504638671875	15.119461059570313	-5.50202415922947	0	-25.944519	-19.92035	-23.538208	128.95837	-4.7303133	10.684994
1448102434912	1.255889892578125	0.678192138671875	9.249465942382813	-6.4624187887566835	0	-26.797485	-18.391418	-23.040771	128.93878	-4.951302	10.54714
1448102434952	2.303253173828125	1.347076416015625	8.611526489257813	-6.304906684031058	0	-26.455688	-19.410706	-23.371887	128.86899	-5.2512145	10.842365
1448102434992	1.589141845703125	1.287567138671875	7.4022979736328125	-6.6005109560076445	0	-26.626587	-19.239807	-22.21222	128.75757	-5.4323483	10.5549345
1448102435033	1.927154541015625	1.209014892578125	8.378250122070313	-6.413309626975011	0	-25.944519	-19.239807	-21.217346	128.66388	-5.3102245	10.542762
1448102435073	1.839080810546875	0.973358154296875	10.156387329101563	-6.205374334487588	0	-26.455688	-19.74945	-22.377014	128.63611	-4.8690376	10.597654
1448102435113	0.908355712890625	-0.692901611328125	12.258255004882813	-6.274786144989331	0	-26.966858	-18.560791	-22.21222	128.6095	-4.761505	10.411903
1448102435153	1.955718994140625	1.047149658203125	9.608901977539063	-6.255294517521364	0	-24.580383	-19.580078	-23.538208	128.52557	-5.1636353	10.639999
1448102435193	1.853363037109375	1.549407958984375	7.1595001220703125	-6.556635212780904	0	-26.966858	-19.239807	-22.543335	128.44	-5.532223	10.566741
1448102435234	1.720062255859375	1.344696044921875	7.8617095947265625	-6.501079179386732	0	-27.137756	-20.429993	-21.382141	128.36871	-5.628188	10.387286
1448102435274	1.839080810546875	1.106658935546875	8.697219848632813	-6.394421869431994	0	-26.626587	-19.92035	-21.879578	128.20703	-5.306287	10.580407
1448102435314	2.593658447265625	0.278289794921875	13.386550903320313	-5.774417074399053	0	-29.013062	-19.580078	-21.879578	128.08414	-4.629621	10.480157
1448102435354	1.686737060546875	0.701995849609375	10.042129516601563	-6.280857180854251	0	-27.479553	-18.051147	-23.371887	128.0122	-4.8865733	10.546871
1448102435395	2.455596923828125	1.354217529296875	8.771011352539063	-6.2596540170924415	0	-28.330994	-20.939636	-23.207092	127.95941	-5.0320363	10.742611
1448102435435	1.760528564453125	1.263763427734375	7.5903472900390625	-6.548588446578716	0	-27.308655	-18.22052	-23.207092	127.84387	-5.2936645	10.54434
1448102435475	1.920013427734375	1.120941162109375	8.668655395507813	-6.384669260585252	0	-27.137756	-20.089722	-21.051025	127.73526	-4.9890327	10.6077585
1448102435515	1.853363037109375	1.049530029296875	9.542251586914063	-6.27883234136369	0	-27.308655	-18.901062	-21.879578	127.75598	-4.6991262	10.635869
1448102435556	0.472747802734375	-0.423919677734375	9.913589477539063	-6.650270232288922	0	-28.67279	-18.22052	-21.548462	127.76489	-4.643419	10.615824
1448102435596	2.486541748046875	1.437530517578125	8.390151977539063	-6.297437102218812	0	-25.77362	-18.391418	-24.699402	127.718445	-5.0080996	10.939564
1448102435638	1.898590087890625	1.416107177734375	6.9095611572265625	-6.6090605674282035	0	-26.966858	-18.560791	-19.889832	127.630005	-5.2983017	10.745111
1448102435678	1.748626708984375	1.289947509765625	8.187820434570313	-6.456018758883719	0	-28.330994	-19.239807	-23.207092	127.55597	-5.1688356	10.7501135
1448102435718	1.924774169921875	1.023345947265625	9.696975708007813	-6.250605648880287	0	-25.944519	-19.239807	-22.543335	127.52594	-4.7019696	10.880635
1448102435758	1.236846923828125	-0.980926513671875	13.760269165039063	-6.062779815322948	0	-27.990723	-20.26062	-21.879578	127.49362	-4.401448	10.776997
1448102435799	1.724822998046875	0.747222900390625	9.937393188476563	-6.283896622348957	0	-27.308655	-18.560791	-23.207092	127.475525	-4.7407074	10.877093
1448102435839	2.429412841796875	1.616058349609375	7.2999420166015625	-6.438304702968011	0	-27.308655	-17.880249	-23.207092	127.33609	-5.100534	10.983117
1448102435879	1.846221923828125	1.230438232421875	7.6331939697265625	-6.534008652768183	0	-27.819824	-18.051147	-23.040771	127.16348	-5.1896296	10.783839
1448102435919	1.939056396484375	0.923370361328125	8.682937622070313	-6.408752978740388	0	-26.455688	-18.051147	-23.371887	127.04584	-4.8667564	10.85924
1448102435960	2.548431396484375	-0.214447021484375	14.595779418945313	-5.692020581159562	0	-27.648926	-16.860962	-20.884705	126.99747	-4.2093954	10.823611
1448102436000	0.408477783203125	-0.830963134765625	9.601760864257813	-6.776868079071134	0	-29.18396	-18.391418	-22.377014	126.99606	-4.396191	10.767418
1448102436040	2.450836181640625	1.385162353515625	8.375869750976563	-6.3120516334535	0	-26.626587	-18.560791	-22.87445	126.975464	-4.677547	11.060015
1448102436080	1.874786376953125	1.306610107421875	6.9785919189453125	-6.619126328999671	0	-27.648926	-18.901062	-21.879578	126.88446	-4.9355254	10.945036
1448102436121	1.912872314453125	1.247100830078125	8.532974243164063	-6.38710480513639	0	-26.797485	-17.710876	-21.714783	126.81763	-4.790143	10.91403
1448102436161	1.820037841796875	0.928131103515625	9.913589477539063	-6.248263531528874	0	-27.819824	-19.410706	-21.714783	126.78909	-4.330357	10.991
1448102436201	1.217803955078125	-0.921417236328125	12.608169555664063	-6.214308770935454	0	-29.18396	-17.03186	-23.040771	126.75665	-4.181745	10.954363
1448102436241	2.065216064453125	0.804351806640625	9.573196411132813	-6.279169733895996	0	-26.966858	-18.22052	-22.87445	126.74884	-4.5704427	11.181288
1448102436281	2.174713134765625	1.501800537109375	7.1142730712890625	-6.521666706436177	0	-28.501892	-17.370605	-21.051025	126.71396	-4.977825	11.217075
1448102436322	1.846221923828125	1.254241943359375	8.087844848632813	-6.4617070696029275	0	-27.308655	-17.880249	-23.869324	126.64276	-5.0453296	11.077721
1448102436362	1.903350830078125	1.040008544921875	8.930496215820313	-6.3607538643142645	0	-26.797485	-19.070435	-22.045898	126.64917	-4.747186	11.174466
1448102436402	1.946197509765625	-0.123992919921875	13.841201782226563	-5.848897841920097	0	-27.648926	-17.541504	-21.217346	126.703156	-4.3265367	11.168065
1448102436442	1.651031494140625	0.397308349609375	10.168289184570313	-6.311370532808995	0	-27.308655	-18.901062	-22.543335	126.717834	-4.5858936	11.221438
1448102436483	2.527008056640625	1.466094970703125	7.7355499267578125	-6.381887902012555	0	-27.990723	-18.22052	-22.87445	126.70032	-5.0442934	11.40753
1448102436523	1.712921142578125	1.218536376953125	8.166397094726563	-6.475255734653379	0	-27.137756	-18.730164	-21.714783	126.616486	-5.321095	11.181111
1448102436563	2.108062744140625	1.251861572265625	8.744827270507813	-6.327411648255579	0	-27.137756	-18.730164	-21.714783	126.609375	-5.1250854	11.166585
1448102436603	2.117584228515625	0.045013427734375	14.276809692382813	-5.752046097456242	0	-27.990723	-17.880249	-20.884705	126.7052	-4.6479745	11.154497
1448102436643	0.979766845703125	-0.154937744140625	9.587478637695313	-6.579789230949881	0	-26.966858	-17.201233	-22.87445	126.81778	-4.572318	11.109422
1448102436684	1.817657470703125	0.773406982421875	9.663650512695313	-6.305926498254898	0	-26.966858	-17.201233	-22.87445	126.835724	-4.7370644	11.265586
1448102436724	1.743865966796875	1.385162353515625	7.0404815673828125	-6.617633100250911	0	-28.330994	-18.22052	-24.201965	126.70648	-5.093777	11.275349
1448102436764	1.893829345703125	1.130462646484375	8.854324340820313	-6.360063139177558	0	-27.479553	-18.730164	-22.045898	126.67938	-5.0053186	11.162801
1448102436806	1.846221923828125	0.873382568359375	9.142349243164063	-6.362481283208785	0	-27.479553	-18.730164	-22.045898	126.690674	-4.814724	11.222889
1448102436846	1.246368408203125	-0.502471923828125	11.820266723632813	-6.262003660780566	0	-27.137756	-18.730164	-22.709656	126.707886	-4.3854213	11.155836
1448102436886	2.158050537109375	1.025726318359375	9.244705200195313	-6.281194767170153	0	-27.819824	-17.710876	-21.714783	126.70978	-4.650904	11.307828
1448102436927	1.903350830078125	1.242340087890625	7.7426910400390625	-6.506845166984702	0	-27.479553	-17.370605	-21.382141	126.61606	-4.9108114	11.228805
1448102436967	1.853363037109375	1.204254150390625	8.704360961914063	-6.37702595218968	0	-26.455688	-17.03186	-22.377014	126.52252	-4.9190702	11.155369
1448102437007	1.908111572265625	0.904327392578125	9.706497192382813	-6.268389130474759	0	-26.797485	-19.070435	-20.387268	126.506744	-4.7225165	11.248578
1448102437047	1.884307861328125	0.354461669921875	11.146621704101563	-6.147994905793799	0	-27.990723	-19.92035	-23.869324	126.54498	-4.4199896	11.185304
1448102437087	1.467742919921875	0.525848388671875	9.630325317382813	-6.397213453130231	0	-25.944519	-16.181946	-22.21222	126.54431	-4.3986926	11.096215
1448102437128	1.984283447265625	1.030487060546875	8.399673461914063	-6.428073106555674	0	-27.479553	-18.391418	-21.051025	126.43115	-4.5129886	11.117948
1448102437168	1.822418212890625	0.885284423828125	9.075698852539063	-6.373904049401139	0	-27.137756	-16.69159	-22.377014	126.29834	-4.48038	11.024345
1448102437208	1.903350830078125	0.692474365234375	9.887405395507813	-6.273438442581444	0	-27.479553	-17.03186	-23.371887	126.14447	-4.389859	11.091895
1448102437248	2.096160888671875	0.725799560546875	9.299453735351563	-6.325017861866488	0	-28.67279	-17.880249	-23.538208	126.06134	-4.345672	11.168435
1448102437289	2.169952392578125	0.885284423828125	8.954299926757813	-6.34112214793341	0	-27.308655	-19.239807	-22.543335	125.98416	-4.242631	11.131909
1448102437329	1.934295654296875	0.671051025390625	9.956436157226563	-6.2623394513221715	0	-28.501892	-19.070435	-23.040771	126.04678	-4.1077366	11.13547
1448102437369	2.031890869140625	0.632965087890625	9.556533813476563	-6.31068956486185	0	-28.330994	-19.239807	-21.548462	126.09845	-4.049726	11.186088
1448102437409	1.841461181640625	0.723419189453125	9.335159301757813	-6.356956587580164	0	-27.137756	-17.03186	-22.709656	126.247284	-3.9874945	11.110581
1448102437450	1.562957763671875	0.523468017578125	9.544631958007813	-6.3961663414665555	0	-27.648926	-17.880249	-22.87445	126.32019	-3.917358	10.903127
1448102437490	1.522491455078125	0.449676513671875	9.777908325195313	-6.378761571201858	0	-27.479553	-17.03186	-21.714783	126.37457	-3.88834	10.834882
1448102437530	1.751007080078125	0.656768798828125	9.413711547851563	-6.368360999180275	0	-26.28479	-17.880249	-23.207092	126.26218	-3.9138422	10.810475
1448102437571	1.758148193359375	0.654388427734375	9.539871215820313	-6.349374546415281	0	-26.115417	-17.370605	-24.035645	126.16431	-3.9264233	10.751481
1448102437611	1.796234130859375	0.744842529296875	9.477981567382813	-6.339748657998289	0	-27.479553	-17.710876	-21.382141	126.06088	-3.9794855	10.706909
1448102437651	1.896209716796875	0.675811767578125	9.485122680664063	-6.334260131116329	0	-26.797485	-19.070435	-25.030518	125.98898	-4.0050697	10.740129
1448102437692	1.941436767578125	0.609161376953125	9.351821899414063	-6.3566115878534735	0	-26.966858	-16.860962	-22.543335	126.01517	-3.9787147	10.751034
1448102437732	1.903350830078125	0.887664794921875	9.661270141601563	-6.277820357318756	0	-27.819824	-18.051147	-21.714783	126.03662	-3.9481447	10.801438
1448102437773	1.908111572265625	1.144744873046875	9.320877075195313	-6.288968194294943	0	-28.501892	-18.051147	-22.377014	126.046326	-3.9950876	10.816864
1448102437813	1.879547119140625	0.675811767578125	9.594619750976563	-6.320918052705423	0	-28.67279	-17.541504	-23.207092	126.074646	-4.0746784	10.898021
1448102437853	1.796234130859375	0.623443603515625	9.518447875976563	-6.351440725762188	0	-28.67279	-17.541504	-23.538208	126.09888	-4.0330005	10.910225
1448102437895	1.855743408203125	0.609161376953125	9.430374145507813	-6.357646690564794	0	-26.455688	-18.730164	-22.709656	126.10733	-4.010256	10.895938
1448102437935	1.831939697265625	0.704376220703125	9.508926391601563	-6.335974363379087	0	-27.308655	-17.541504	-23.538208	126.20364	-3.9510133	10.869979
1448102437976	1.836700439453125	0.635345458984375	9.497024536132813	-6.34696556344889	0	-27.308655	-17.201233	-21.548462	126.24011	-3.9474752	10.85359
1448102438017	1.796234130859375	0.606781005859375	9.485122680664063	-6.358682104025269	0	-27.137756	-18.730164	-22.045898	126.26822	-3.9254148	10.8167305
1448102438057	1.777191162109375	0.628204345703125	9.530349731445313	-6.351785209123676	0	-27.479553	-17.03186	-23.371887	126.28836	-3.9142978	10.773274
1448102438097	1.789093017578125	0.561553955078125	9.577957153320313	-6.352818865362693	0	-26.626587	-17.201233	-22.543335	126.276215	-3.9224432	10.807563
1448102438137	1.779571533203125	0.625823974609375	9.587478637695313	-6.343527066100425	0	-27.819824	-18.051147	-23.040771	126.34152	-3.8708868	10.816632
1448102438177	1.760528564453125	0.623443603515625	9.511306762695313	-6.357646690564794	0	-27.479553	-17.03186	-23.371887	126.36737	-3.8668766	10.791541
1448102438218	1.781951904296875	0.597259521484375	9.601760864257813	-6.345245887800691	0	-28.161621	-17.370605	-22.045898	126.34726	-3.8524053	10.758873
1448102438258	1.850982666015625	0.649627685546875	9.477981567382813	-6.345589754573773	0	-28.330994	-19.239807	-23.869324	126.377686	-3.8358371	10.738771
1448102438298	1.948577880859375	0.659149169921875	9.532730102539063	-6.322284119756029	0	-28.330994	-17.880249	-23.538208	126.44794	-3.838814	10.704509
1448102438338	1.755767822265625	0.663909912109375	9.461318969726563	-6.35971782851494	0	-26.797485	-17.370605	-22.045898	126.47992	-3.856861	10.733871
1448102438379	1.386810302734375	0.444915771484375	9.497024536132813	-6.440779058483418	0	-27.137756	-18.051147	-22.709656	126.50543	-3.8742833	10.728612
1448102438419	1.817657470703125	0.611541748046875	9.639846801757813	-6.332546744721979	0	-27.137756	-17.710876	-23.371887	126.50827	-3.829146	10.688439
1448102438459	1.727203369140625	0.659149169921875	9.437515258789063	-6.368014855227289	0	-24.92218	-18.22052	-23.538208	126.57419	-3.835616	10.6733
1448102438499	1.748626708984375	0.644866943359375	9.556533813476563	-6.349718823878912	0	-27.479553	-19.410706	-23.371887	126.647	-3.8404121	10.643052
1448102438540	1.772430419921875	0.628204345703125	9.542251586914063	-6.350751862054835	0	-27.479553	-16.69159	-23.040771	126.717834	-3.8448641	10.634726
1448102438580	1.817657470703125	0.609161376953125	9.497024536132813	-6.353508141420349	0	-27.479553	-17.03186	-24.36676	126.66849	-3.8494394	10.6251955
1448102438620	1.822418212890625	0.637725830078125	9.489883422851563	-6.349718823878912	0	-26.966858	-18.560791	-23.207092	126.685486	-3.8463597	10.613373
1448102438661	1.691497802734375	0.625823974609375	9.489883422851563	-6.370438595147877	0	-26.797485	-17.710876	-24.035645	126.70349	-3.85226	10.605812
1448102438701	1.777191162109375	0.663909912109375	9.489883422851563	-6.352474278913647	0	-26.455688	-16.69159	-23.040771	126.66452	-3.8664055	10.594298
1448102438741	1.734344482421875	0.568695068359375	9.492263793945313	-6.372170885179523	0	-29.013062	-18.22052	-22.543335	126.63028	-3.8602223	10.593388
1448102438782	1.741485595703125	0.621063232421875	9.477981567382813	-6.365592822514342	0	-26.455688	-18.391418	-23.704529	126.55536	-3.8456101	10.547745
1448102438822	1.762908935546875	0.623443603515625	9.575576782226563	-6.347997779262688	0	-27.990723	-18.901062	-21.879578	126.57327	-3.8440683	10.539873
1448102438863	1.791473388671875	0.680572509765625	9.499404907226563	-6.346621559942307	0	-27.819824	-18.730164	-23.371887	126.60898	-3.8452716	10.549252
1448102438903	1.791473388671875	0.616302490234375	9.547012329101563	-6.3490303032320785	0	-27.308655	-19.239807	-23.538208	126.646484	-3.8535066	10.572609
1448102438943	1.779571533203125	0.632965087890625	9.427993774414063	-6.365592822514342	0	-26.966858	-16.181946	-23.538208	126.69919	-3.847747	10.578023
1448102438983	1.765289306640625	0.671051025390625	9.501785278320313	-6.351440725762188	0	-27.648926	-18.22052	-23.207092	126.65112	-3.853305	10.579771
1448102439024	1.760528564453125	0.611541748046875	9.523208618164063	-6.357646690564794	0	-27.137756	-19.070435	-20.71991	126.6149	-3.8633382	10.570095
1448102439064	1.198760986328125	0.511566162109375	9.342300415039063	-6.482050772890171	0	-27.137756	-19.070435	-20.71991	126.63098	-3.8545954	10.55725
1448102439104	1.891448974609375	0.699615478515625	9.508926391601563	-6.328095889793062	0	-27.308655	-16.860962	-22.87445	126.54697	-3.7926652	10.567266
1448102439144	2.281829833984375	0.861480712890625	9.542251586914063	-6.2449203212825175	0	-26.626587	-17.880249	-22.87445	126.45264	-3.818232	10.6459875
1448102439185	1.781951904296875	0.642486572265625	9.480361938476563	-6.356266622623393	0	-26.626587	-18.22052	-23.207092	126.49747	-3.8639002	10.711959
1448102439225	1.727203369140625	0.611541748046875	9.504165649414063	-6.365246956994739	0	-26.626587	-18.901062	-23.207092	126.550415	-3.85842	10.695854
1448102439265	1.681976318359375	0.544891357421875	9.646987915039063	-6.3607538643142645	0	-26.797485	-18.730164	-23.704529	126.587524	-3.7394838	10.609211
1448102439305	1.786712646484375	0.549652099609375	9.539871215820313	-6.360408484440532	0	-27.648926	-18.22052	-23.207092	126.52594	-3.6869051	10.689808
1448102439346	1.955718994140625	0.749603271484375	9.447036743164063	-6.320576619586571	0	-27.479553	-18.730164	-22.709656	126.43518	-3.6637256	10.821599
1448102439386	1.960479736328125	0.699615478515625	9.447036743164063	-6.3270695779447745	0	-28.501892	-17.710876	-23.704529	126.38214	-3.6824782	10.990414
1448102439426	1.784332275390625	0.592498779296875	9.511306762695313	-6.358682104025269	0	-27.308655	-17.541504	-23.869324	126.31262	-3.684408	11.077558
1448102439466	1.841461181640625	0.542510986328125	9.427993774414063	-6.369745923612291	0	-25.77362	-17.370605	-24.36676	126.28607	-3.6728716	11.110123
1448102439506	1.848602294921875	0.582977294921875	9.477981567382813	-6.3555767956116895	0	-27.479553	-17.710876	-21.714783	126.25134	-3.6363935	11.191746
1448102439547	2.069976806640625	0.652008056640625	9.418472290039063	-6.322284119756029	0	-26.797485	-18.730164	-22.709656	126.202515	-3.6113834	11.344587
1448102439587	2.386566162109375	0.828155517578125	9.468460083007813	-6.245254501077532	0	-27.137756	-17.710876	-24.035645	126.246155	-3.6149013	11.487522
1448102439627	1.920013427734375	0.590118408203125	9.535110473632813	-6.335974363379087	0	-28.330994	-18.22052	-22.87445	126.351746	-3.6563334	11.590704
1448102439667	1.896209716796875	0.611541748046875	9.420852661132813	-6.352818865362693	0	-27.819824	-17.710876	-23.040771	126.377655	-3.6519854	11.610823
1448102439708	1.846221923828125	0.532989501953125	9.430374145507813	-6.370092241927997	0	-27.479553	-17.710876	-22.709656	126.362	-3.631883	11.601444
1448102439748	2.005706787109375	0.625823974609375	9.454177856445313	-6.330149422447651	0	-27.137756	-17.370605	-23.040771	126.33313	-3.5958188	11.69456
1448102439788	2.067596435546875	0.621063232421875	9.568435668945313	-6.3055865271733005	0	-27.137756	-17.03186	-22.045898	126.28711	-3.5966856	11.805211
1448102439828	1.989044189453125	0.654388427734375	9.375625610351563	-6.339748657998289	0	-28.161621	-17.710876	-22.377014	126.27673	-3.6222284	11.904873
1448102439869	1.996185302734375	0.578216552734375	9.501785278320313	-6.331519118381694	0	-27.137756	-17.03186	-22.709656	126.31415	-3.644701	11.912678
1448102439909	1.984283447265625	0.568695068359375	9.416091918945313	-6.34696556344889	0	-28.161621	-18.391418	-22.045898	126.34375	-3.6504915	11.936763
1448102439949	1.762908935546875	0.544891357421875	9.489883422851563	-6.371824357280331	0	-26.797485	-18.051147	-23.040771	126.40219	-3.6386402	11.952642
1448102439990	2.067596435546875	0.585357666015625	9.373245239257813	-6.338718897536953	0	-27.479553	-17.370605	-23.371887	126.37625	-3.5852263	12.059321
1448102440030	2.341339111328125	0.723419189453125	9.416091918945313	-6.273775319984508	0	-28.67279	-17.541504	-22.87445	126.34009	-3.5637677	12.334924
1448102440070	2.196136474609375	0.587738037109375	9.501785278320313	-6.301509446242642	0	-27.648926	-17.541504	-22.21222	126.45926	-3.5628896	12.656231
1448102440110	2.069976806640625	0.516326904296875	9.466079711914063	-6.334945722447069	0	-28.501892	-19.070435	-22.709656	126.58838	-3.5603783	12.687151
1448102440151	2.074737548828125	0.528228759765625	9.408950805664063	-6.340778724420745	0	-27.479553	-16.69159	-22.709656	126.66345	-3.5496259	12.688525
1448102440191	2.029510498046875	0.492523193359375	9.392288208007813	-6.354887106462348	0	-27.308655	-19.239807	-22.87445	126.791565	-3.4756553	12.651102
1448102440231	2.212799072265625	0.661529541015625	9.432754516601563	-6.298454745042216	0	-27.479553	-17.710876	-23.040771	126.84155	-3.4438736	12.796778
1448102440271	2.308013916015625	0.644866943359375	9.413711547851563	-6.289983386374544	0	-28.161621	-18.391418	-21.714783	126.85266	-3.4518142	12.89971
1448102440312	2.391326904296875	0.592498779296875	9.487503051757813	-6.275123150953476	0	-27.308655	-18.22052	-22.21222	126.99069	-3.4670668	13.197023
1448102440352	2.129486083984375	0.504425048828125	9.427993774414063	-6.333574675124501	0	-28.330994	-18.560791	-22.21222	127.16101	-3.4698143	13.2510395
1448102440392	2.248504638671875	0.521087646484375	9.318496704101563	-6.329807082776166	0	-29.013062	-17.880249	-22.87445	127.23212	-3.4747565	13.223918
1448102440432	2.219940185546875	0.516326904296875	9.385147094726563	-6.325017861866488	0	-27.990723	-18.560791	-21.217346	127.342316	-3.469776	13.173531
1448102440473	2.181854248046875	0.475860595703125	9.332778930664063	-6.343870762185691	0	-26.966858	-17.880249	-20.553589	127.45447	-3.4519782	13.264762
1448102440513	2.453216552734375	0.454437255859375	9.432754516601563	-6.293708267367849	0	-27.990723	-17.541504	-22.543335	127.52774	-3.4193778	13.343736
1448102440553	2.153289794921875	0.528228759765625	9.425613403320313	-6.3270695779447745	0	-28.67279	-17.880249	-22.21222	127.572845	-3.373403	13.401662
1448102440593	2.403228759765625	0.466339111328125	9.475601196289063	-6.2930307225582105	0	-29.354858	-18.22052	-22.21222	127.63257	-3.4047086	13.44439
1448102440633	2.293731689453125	0.687713623046875	9.508926391601563	-6.272428003039246	0	-27.819824	-17.03186	-22.709656	127.75723	-3.4538326	13.421205
1448102440674	2.169952392578125	0.632965087890625	9.673171997070313	-6.274449171179256	0	-27.648926	-18.22052	-22.543335	127.89914	-3.496698	13.302634
1448102440714	2.286590576171875	0.661529541015625	9.239944458007813	-6.315459129855211	0	-26.966858	-17.880249	-22.21222	128.07474	-3.5437949	13.1102495
1448102440754	2.089019775390625	0.566314697265625	9.563674926757813	-6.3110300322531	0	-27.479553	-17.710876	-23.371887	128.37918	-3.5801277	13.0817585
1448102440794	2.005706787109375	0.532989501953125	9.425613403320313	-6.34765367309887	0	-28.330994	-16.860962	-23.538208	128.64044	-3.6313238	12.967228
1448102440835	1.903350830078125	0.373504638671875	9.454177856445313	-6.381540391001156	0	-27.479553	-19.070435	-23.704529	128.83044	-3.6030548	12.84306
1448102440875	1.867645263671875	0.502044677734375	9.425613403320313	-6.372170885179523	0	-27.990723	-18.901062	-23.207092	128.91077	-3.4942455	12.828071
1448102440915	2.091400146484375	0.585357666015625	9.225662231445313	-6.3566115878534735	0	-26.28479	-19.239807	-23.207092	128.91528	-3.4504025	12.919323
1448102440955	2.124725341796875	0.704376220703125	9.335159301757813	-6.31886995536383	0	-29.013062	-19.239807	-22.543335	129.05652	-3.452189	13.132071
1448102440996	2.036651611328125	-0.062103271484375	11.129959106445313	-6.186585159382759	0	-27.990723	-17.201233	-22.87445	129.10898	-3.7841847	13.284937
1448102441036	2.024749755859375	0.630584716796875	9.497024536132813	-6.320576619586571	0	-26.797485	-18.391418	-23.371887	129.13272	-4.200677	12.931813
1448102441076	1.917633056640625	1.040008544921875	8.837661743164063	-6.372170885179523	0	-27.308655	-18.22052	-22.21222	129.15927	-4.7500715	12.824695
1448102441116	1.577239990234375	1.066192626953125	7.7260284423828125	-6.5864352434121765	0	-26.797485	-17.710876	-21.714783	129.05338	-5.2082353	12.63763
1448102441157	2.736480712890625	1.392303466796875	8.492507934570313	-6.2539542092888265	0	-27.479553	-18.051147	-21.051025	128.75717	-5.316211	12.710142
1448102441197	2.291351318359375	1.239959716796875	8.682937622070313	-6.311711066539229	0	-27.990723	-18.901062	-21.879578	128.65588	-5.2656865	12.827826
1448102441237	3.626739501953125	1.308990478515625	11.325149536132813	-5.77412191368613	0	-26.966858	-18.22052	-23.207092	128.66656	-5.0366063	12.921011
1448102441277	2.193756103515625	0.652008056640625	10.158767700195313	-6.2156342816953725	0	-26.797485	-18.730164	-23.040771	128.89178	-5.225663	12.991232
1448102441318	2.150909423828125	1.206634521484375	8.052139282226563	-6.296080704007018	0	-27.990723	-18.560791	-22.21222	129.09723	-5.4877553	12.797187
1448102441358	1.929534912109375	1.154266357421875	7.8855133056640625	-6.494604442153445	0	-27.479553	-18.051147	-22.377014	129.19772	-5.615471	12.404176
1448102441398	2.105682373046875	1.075714111328125	9.028091430664063	-6.304906684031058	0	-26.455688	-18.391418	-23.704529	129.28723	-5.530206	12.284421
1448102441439	2.022369384765625	1.116180419921875	9.549392700195313	-6.244586172839469	0	-26.28479	-17.880249	-22.87445	129.56705	-4.954338	11.986661
1448102441479	2.103302001953125	-0.300140380859375	14.495803833007813	-5.769402277061283	0	-26.115417	-17.710876	-24.699402	129.63031	-4.7693977	11.917042
1448102441519	2.110443115234375	0.801971435546875	9.423233032226563	-6.2943859428833475	0	-26.966858	-19.92035	-22.87445	129.99014	-5.5838447	12.092802
1448102441559	2.493682861328125	1.613677978515625	7.3570709228515625	-6.420683320178225	0	-26.115417	-18.051147	-24.035645	130.08414	-6.043432	11.773585
1448102441600	1.772430419921875	1.418487548828125	7.3427886962890625	-6.561032766828106	0	-27.308655	-18.901062	-23.207092	130.05814	-6.129916	11.540642
1448102441640	1.512969970703125	1.206634521484375	8.723403930664063	-6.42384839474555	0	-27.479553	-19.410706	-25.030518	130.06134	-5.873114	11.45267
1448102441680	2.998321533203125	1.406585693359375	12.565322875976563	-5.68710608660007	0	-26.115417	-17.710876	-22.709656	130.01288	-5.2597814	11.587149
1448102441720	1.298736572265625	0.316375732421875	10.925247192382813	-6.265362999025578	0	-26.455688	-18.051147	-23.704529	129.98114	-5.178711	11.673383
1448102441761	1.841461181640625	1.494659423828125	8.461563110351563	-6.371824357280331	0	-25.602722	-19.239807	-22.543335	130.03845	-5.7852817	11.751205
1448102441801	1.786712646484375	1.480377197265625	7.2642364501953125	-6.561399498652616	0	-27.137756	-19.070435	-24.36676	129.92859	-6.015683	11.547712
1448102441842	1.986663818359375	1.237579345703125	8.849563598632813	-6.331861626727083	0	-25.77362	-19.74945	-22.709656	129.8418	-5.8767037	11.572657
1448102441882	2.062835693359375	0.737701416015625	10.763381958007813	-6.123677374233499	0	-25.77362	-20.089722	-23.704529	129.85675	-5.5513587	11.774494
1448102441922	1.936676025390625	0.171173095703125	11.179946899414063	-6.161357069754086	0	-27.137756	-18.730164	-24.36676	129.91553	-5.4312086	11.879372
1448102441962	2.200897216796875	1.042388916015625	8.611526489257813	-6.363518150541536	0	-26.28479	-18.560791	-23.869324	129.92786	-5.6503963	11.910961
1448102442003	2.008087158203125	1.304229736328125	7.9783477783203125	-6.446441570275061	0	-27.990723	-18.22052	-23.538208	129.89359	-5.797141	11.8070135
1448102442043	2.100921630859375	1.116180419921875	8.956680297851563	-6.317505225042917	0	-26.115417	-17.370605	-23.704529	129.80252	-5.718642	11.835782
1448102442083	1.910491943359375	0.968597412109375	9.437515258789063	-6.297097953518502	0	-26.626587	-18.901062	-22.87445	129.85345	-5.445387	11.966816
1448102442123	2.757904052734375	0.340179443359375	11.989273071289063	-5.922355341461764	0	-25.43335	-18.391418	-24.36676	129.89752	-5.143575	12.029422
1448102442164	1.977142333984375	0.999542236328125	9.537490844726563	-6.269061955676086	0	-26.626587	-19.580078	-23.869324	130.02362	-5.335863	12.13378
1448102442204	2.293731689453125	1.449432373046875	8.214004516601563	-6.348686094319067	0	-26.28479	-19.92035	-23.869324	130.10684	-5.6235533	12.083246
1448102442244	1.760528564453125	1.192352294921875	8.423477172851563	-6.4337142871086535	0	-27.648926	-19.239807	-22.543335	130.09882	-5.6539783	11.99477
1448102442285	2.103302001953125	0.980499267578125	9.511306762695313	-6.257641274933369	0	-26.455688	-18.730164	-23.040771	130.03189	-5.459136	12.0350685
1448102442325	2.184234619140625	0.642486572265625	10.944290161132813	-6.095668667768283	0	-26.455688	-19.74945	-22.709656	130.0426	-5.216618	12.101009
1448102442365	1.608184814453125	0.106903076171875	10.706253051757813	-6.282207720133467	0	-26.966858	-18.901062	-22.87445	130.10455	-5.333182	12.206629
1448102442405	2.039031982421875	1.247100830078125	8.363967895507813	-6.393375614172456	0	-26.966858	-17.880249	-23.869324	130.09845	-5.735358	12.197918
1448102442445	1.965240478515625	1.356597900390625	7.8379058837890625	-6.465979659001144	0	-25.944519	-18.901062	-23.538208	129.96063	-5.9443984	12.112309
1448102442486	2.177093505859375	1.239959716796875	8.840042114257813	-6.3055865271733005	0	-26.966858	-18.901062	-21.548462	129.8435	-5.8391895	12.149082
1448102442526	2.041412353515625	1.054290771484375	9.470840454101563	-6.261667902046421	0	-24.92218	-18.560791	-23.207092	129.78375	-5.531212	12.258718
1448102442566	2.527008056640625	0.004547119140625	12.451065063476563	-5.935861021554436	0	-26.626587	-19.580078	-23.207092	129.77133	-5.168755	12.276845
1448102442606	1.922393798828125	0.497283935546875	10.065933227539063	-6.273101597295668	0	-27.648926	-17.541504	-22.87445	129.84637	-5.407973	12.453526
1448102442647	2.217559814453125	1.480377197265625	7.9474029541015625	-6.394073082037254	0	-27.479553	-18.730164	-22.377014	129.78638	-5.879231	12.470754
1448102442687	2.019989013671875	1.378021240234375	8.418716430664063	-6.369053391651203	0	-27.819824	-20.089722	-24.035645	129.64166	-6.062074	12.36159
1448102442727	2.041412353515625	1.054290771484375	9.458938598632813	-6.263347013882185	0	-26.28479	-18.901062	-22.21222	129.5892	-5.660034	12.510808
1448102442767	2.569854736328125	1.037628173828125	10.972854614257813	-5.98817918447769	0	-27.308655	-18.560791	-24.533081	129.55737	-5.1508203	12.494322
1448102442808	2.008087158203125	-0.031158447265625	12.443923950195313	-6.0091202224195035	0	-27.308655	-18.560791	-24.533081	129.5332	-5.0446577	12.548141
1448102442848	1.720062255859375	1.228057861328125	8.487747192382813	-6.424904077896667	0	-26.966858	-19.92035	-23.869324	129.66599	-5.6914897	12.791497
1448102442888	2.560333251953125	1.497039794921875	7.2213897705078125	-6.448213063183038	0	-25.944519	-18.22052	-22.21222	129.52728	-5.9646463	12.652849
1448102442929	2.084259033203125	1.159027099609375	8.663894653320313	-6.355921691879578	0	-27.137756	-18.730164	-24.035645	129.44641	-5.824405	12.649321
1448102442969	1.943817138671875	1.023345947265625	9.389907836914063	-6.291337431876309	0	-26.966858	-18.22052	-23.207092	129.41443	-5.4317026	12.778332
1448102443009	3.364898681640625	0.109283447265625	12.748611450195313	-5.778847080678661	0	-26.455688	-18.730164	-22.709656	129.33936	-4.9416714	12.754182
1448102443050	1.896209716796875	0.513946533203125	9.908828735351563	-6.296758837589432	0	-26.966858	-19.580078	-22.87445	129.39868	-5.1177006	12.948797
1448102443090	2.388946533203125	1.477996826171875	7.9593048095703125	-6.367668746115253	0	-25.944519	-18.901062	-23.869324	129.44708	-5.539482	12.955893
1448102443130	1.936676025390625	1.216156005859375	7.7522125244140625	-6.504321308601579	0	-26.797485	-19.070435	-24.035645	129.38464	-5.683978	12.830574
1448102443170	2.293731689453125	1.109039306640625	9.297073364257813	-6.242915900595065	0	-27.648926	-19.239807	-22.543335	129.35205	-5.463696	12.958209
1448102443210	2.277069091796875	0.923370361328125	10.182571411132813	-6.148320231549012	0	-27.137756	-18.730164	-23.040771	129.34106	-5.101091	13.033886
1448102443251	1.920013427734375	0.021209716796875	11.337051391601563	-6.1626633188634	0	-27.137756	-17.710876	-24.36676	129.35635	-4.9611454	13.050507
1448102443291	2.474639892578125	1.147125244140625	8.606765747070313	-6.309668361579102	0	-27.308655	-20.26062	-23.538208	129.34198	-5.3032317	13.126288
1448102443331	2.072357177734375	1.316131591796875	7.9331207275390625	-6.441840053574355	0	-26.797485	-18.730164	-24.035645	129.34479	-5.54574	13.028197
1448102443371	2.217559814453125	1.132843017578125	8.842422485351563	-6.31477736455833	0	-27.990723	-17.880249	-23.207092	129.29855	-5.4671717	13.03837
1448102443412	2.119964599609375	0.821014404296875	10.023086547851563	-6.206035384310147	0	-26.626587	-16.860962	-22.543335	129.19733	-5.1947846	13.140816
1448102443452	2.350860595703125	0.371124267578125	10.987136840820313	-6.104016887617299	0	-27.648926	-18.22052	-23.869324	129.11792	-4.972802	13.153025
1448102443492	2.131866455078125	0.644866943359375	9.825515747070313	-6.25663533179444	0	-28.843689	-19.410706	-24.035645	129.1463	-5.1328464	13.267608
1448102443532	2.300872802734375	1.239959716796875	8.542495727539063	-6.3304917958339795	0	-25.43335	-18.391418	-23.371887	129.13702	-5.4769783	13.286361
1448102443573	2.139007568359375	1.275665283203125	8.202102661132813	-6.398260886488066	0	-27.308655	-18.560791	-22.87445	129.09949	-5.6308837	13.210308
1448102443613	2.241363525390625	1.087615966796875	9.254226684570313	-6.25931848075772	0	-28.501892	-18.391418	-22.709656	129.06903	-5.521027	13.269495
1448102443653	2.205657958984375	0.768646240234375	10.096878051757813	-6.191190998105945	0	-27.308655	-19.239807	-23.538208	128.96893	-5.294207	13.298076
1448102443694	2.181854248046875	0.523468017578125	10.499160766601563	-6.172802670452497	0	-27.648926	-18.901062	-22.21222	128.95905	-5.2279177	13.30713
1448102443734	1.820037841796875	0.885284423828125	8.804336547851563	-6.414011192986017	0	-26.966858	-17.201233	-25.196838	128.99316	-5.4318867	13.328098
1448102443774	2.372283935546875	1.199493408203125	8.502029418945313	-6.331861626727083	0	-27.990723	-18.22052	-23.207092	128.88242	-5.589098	13.301209
1448102443814	2.312774658203125	0.890045166015625	8.894790649414063	-6.322284119756029	0	-28.843689	-18.051147	-22.709656	128.76996	-5.518155	13.318069
1448102443855	2.258026123046875	0.828155517578125	9.870742797851563	-6.207027186668317	0	-27.137756	-18.730164	-22.377014	128.67398	-5.3265204	13.408806
1448102443896	2.203277587890625	0.413970947265625	10.644363403320313	-6.16495038224755	0	-26.626587	-17.541504	-22.543335	128.65094	-5.188678	13.401296
1448102443936	2.296112060546875	1.006683349609375	8.906692504882813	-6.312392233561509	0	-26.28479	-19.239807	-23.869324	128.66977	-5.4310236	13.505979
1448102443976	2.405609130859375	1.213775634765625	8.442520141601563	-6.333574675124501	0	-26.28479	-18.22052	-23.207092	128.70734	-5.5464845	13.496189
1448102444016	2.279449462890625	1.166168212890625	8.640090942382813	-6.330149422447651	0	-26.28479	-17.201233	-23.207092	128.67294	-5.5855293	13.406512
1448102444056	2.331817626953125	0.923370361328125	9.858840942382813	-6.185270281420916	0	-27.648926	-19.92035	-22.21222	128.64099	-5.386882	13.490933
1448102444097	2.253265380859375	1.156646728515625	9.154251098632813	-6.262003660780566	0	-27.479553	-19.410706	-22.709656	128.6427	-5.1778526	13.425294
1448102444137	2.053314208984375	0.337799072265625	11.353713989257813	-6.099198312765688	0	-27.137756	-20.429993	-24.36676	128.61176	-5.007361	13.360632
1448102444177	1.931915283203125	0.718658447265625	9.523208618164063	-6.317505225042917	0	-26.797485	-18.051147	-24.699402	128.76678	-5.2763	13.557424
1448102444217	2.491302490234375	1.111419677734375	8.206863403320313	-6.370092241927997	0	-27.137756	-19.070435	-23.040771	128.72198	-5.544946	13.613546
1448102444258	2.105682373046875	1.011444091796875	8.275894165039063	-6.431245110527959	0	-27.648926	-18.560791	-23.207092	128.59583	-5.542025	13.540014
1448102444298	2.434173583984375	0.871002197265625	9.406570434570313	-6.241246410828189	0	-26.115417	-18.051147	-23.704529	128.47348	-5.3637424	13.697729
1448102444338	2.465118408203125	0.849578857421875	9.716018676757813	-6.2136461989330325	0	-25.944519	-19.92035	-21.879578	128.4524	-5.2476554	13.800783
1448102444378	2.610321044921875	0.240203857421875	11.177566528320313	-6.061190619082599	0	-27.137756	-18.391418	-24.035645	128.49078	-4.9021626	13.904065
1448102444419	2.403228759765625	0.859100341796875	9.075698852539063	-6.294047088782638	0	-27.137756	-19.070435	-23.371887	128.60815	-5.139341	14.052731
1448102444459	2.650787353515625	1.235198974609375	8.061660766601563	-6.350063135633215	0	-28.330994	-18.560791	-22.87445	128.67175	-5.398423	14.020345
1448102444499	2.377044677734375	1.056671142578125	8.590103149414063	-6.339062117045213	0	-27.308655	-19.580078	-23.869324	128.70389	-5.4092336	13.904965
1448102444539	2.424652099609375	0.906707763671875	9.696975708007813	-6.197121426675444	0	-26.797485	-18.730164	-23.371887	128.83627	-5.2733397	13.956336
1448102444579	2.484161376953125	0.994781494140625	10.713394165039063	-6.039328170660788	0	-27.648926	-19.239807	-22.87445	128.90417	-5.2031984	14.020252
1448102444620	2.560333251953125	0.668670654296875	9.906448364257813	-6.182313550158071	0	-28.67279	-17.880249	-23.207092	129.08331	-5.4168525	13.828933
1448102444660	1.555816650390625	1.092376708984375	8.266372680664063	-6.502879969483027	0	-27.479553	-19.410706	-22.709656	129.10095	-5.974854	13.368798
1448102444700	1.484405517578125	1.530364990234375	8.504409790039063	-6.412608205983467	0	-26.28479	-18.560791	-21.879578	129.11584	-6.122685	12.950062
1448102444740	1.724822998046875	1.361358642578125	8.911453247070313	-6.342839776240954	0	-27.479553	-19.410706	-22.377014	128.89063	-5.8958063	12.845715
1448102444782	1.765289306640625	0.897186279296875	9.332778930664063	-6.343183404122229	0	-25.602722	-20.26062	-24.201965	128.69543	-5.581742	13.077282
1448102444822	2.153289794921875	0.209259033203125	11.734573364257813	-6.051986545543894	0	-26.28479	-18.22052	-24.201965	128.49371	-5.3853188	13.195209
1448102444862	1.672454833984375	0.247344970703125	11.106155395507813	-6.197451180652797	0	-27.137756	-18.051147	-22.045898	128.23636	-5.7553587	13.53668
1448102444902	2.255645751953125	0.735321044921875	8.223526000976563	-6.4577953180498024	0	-26.626587	-16.860962	-24.201965	127.83087	-6.4493513	13.656686
1448102444943	2.905487060546875	1.849334716796875	6.8238677978515625	-6.403852643055128	0	-27.479553	-18.391418	-22.045898	127.131134	-6.8494573	13.312279
1448102444983	2.365142822265625	1.268524169921875	7.3332672119140625	-6.532190743134677	0	-27.648926	-17.201233	-23.538208	126.74963	-6.820925	13.374503
1448102445023	2.581756591796875	-0.278717041015625	8.985244750976563	-6.4467957941335605	0	-27.990723	-17.541504	-21.051025	126.20709	-6.0746837	13.956098
1448102445063	5.933319091796875	0.525848388671875	17.426040649414063	-4.9193504534878905	0	-27.990723	-17.541504	-22.543335	125.405	-4.799454	14.186303
1448102445104	2.450836181640625	0.790069580078125	7.3856353759765625	-6.546762406239337	0	-29.354858	-17.880249	-24.201965	125.176575	-6.132084	13.938215
1448102445144	2.698394775390625	2.501556396484375	6.5715484619140625	-6.375638089137528	0	-28.843689	-17.370605	-24.035645	125.08853	-6.977979	13.4649725
1448102445184	2.517486572265625	2.749114990234375	5.8479156494140625	-6.472755790695363	0	-28.843689	-17.370605	-24.035645	125.06268	-7.1829205	13.108601
1448102445225	1.186859130859375	1.504180908203125	8.330642700195313	-6.4867080229534855	0	-28.330994	-17.541504	-23.869324	125.39618	-6.4522214	12.658709
1448102445265	3.848114013671875	0.761505126953125	14.112564086914063	-5.479686177477177	0	-26.626587	-16.522217	-23.207092	125.57312	-5.141751	12.913715
1448102445305	1.365386962890625	0.068817138671875	11.270401000976563	-6.242248010852594	0	-26.626587	-16.522217	-24.201965	126.01898	-5.309769	13.63094
1448102445345	0.848846435546875	1.254241943359375	5.9455108642578125	-6.969594669873871	0	-27.819824	-17.03186	-25.361633	126.364624	-6.679283	13.438152
1448102445386	2.298492431640625	1.749359130859375	6.2144927978515625	-6.603110596185534	0	-26.797485	-18.051147	-24.699402	125.91644	-7.3981686	13.298391
1448102445427	2.350860595703125	1.656524658203125	7.0404815673828125	-6.482766848157226	0	-26.797485	-18.051147	-24.699402	125.64215	-7.3762283	13.4047165
1448102445467	2.876922607421875	1.996917724609375	11.679824829101563	-5.737980435438475	0	-26.115417	-17.370605	-25.694275	124.92169	-6.6038804	13.830881
1448102445507	3.050689697265625	0.656768798828125	14.641006469726563	-5.5230891775763755	0	-28.330994	-18.22052	-25.196838	124.335175	-6.3529153	14.148352
1448102445548	2.710296630859375	1.230438232421875	7.7736358642578125	-6.383973709044607	0	-27.308655	-17.201233	-26.191711	124.31616	-7.3810935	14.468787
1448102445588	2.315155029296875	1.739837646484375	5.7407989501953125	-6.676777061561379	0	-28.161621	-18.051147	-23.704529	124.25256	-8.259953	14.139809
1448102445628	2.319915771484375	1.637481689453125	6.8809967041015625	-6.514428351218749	0	-28.501892	-18.730164	-24.699402	123.95392	-8.242128	13.691141
1448102445668	2.158050537109375	1.606536865234375	9.727920532226563	-6.133385068285506	0	-28.161621	-17.370605	-25.694275	123.72504	-7.3846564	13.635356
1448102445708	2.527008056640625	-0.999969482421875	14.505325317382813	-5.802556557228485	0	-27.137756	-18.391418	-25.030518	123.44525	-6.445075	13.5646515
1448102445749	2.686492919921875	0.761505126953125	10.791946411132813	-6.03301490648378	0	-28.161621	-18.730164	-25.694275	123.63162	-6.7729588	14.029936
1448102445789	2.150909423828125	1.842193603515625	5.6884307861328125	-6.695083679381295	0	-28.67279	-16.860962	-24.201965	123.8663	-8.034713	13.747903
1448102445829	1.824798583984375	2.163543701171875	6.4263458251953125	-6.579420409343236	0	-27.308655	-18.22052	-25.196838	123.7652	-8.389817	13.091615
1448102445869	1.748626708984375	1.473236083984375	9.113784790039063	-6.2943859428833475	0	-27.990723	-18.901062	-25.85907	123.63324	-7.8234954	12.992604
1448102445910	2.841217041015625	-0.342987060546875	13.815017700195313	-5.767633835167214	0	-26.115417	-18.730164	-25.694275	123.44754	-6.8161287	13.245847
1448102445950	2.691253662109375	0.644866943359375	10.772903442382813	-6.05040191578618	0	-27.308655	-17.880249	-24.864197	123.56497	-6.901519	13.592191
1448102445990	2.667449951171875	2.068328857421875	6.0026397705078125	-6.529647363921541	0	-28.161621	-17.370605	-25.694275	123.78592	-8.10684	13.462182
1448102446030	2.031890869140625	1.849334716796875	6.6620025634765625	-6.559566253730328	0	-27.137756	-18.391418	-27.684021	123.82178	-8.540277	12.952009
1448102446071	1.917633056640625	1.299468994140625	9.147109985351563	-6.290321848867355	0	-29.013062	-17.880249	-26.191711	123.86673	-8.055057	12.721588
1448102446111	2.424652099609375	1.313751220703125	11.129959106445313	-5.9506484408180365	0	-26.797485	-17.370605	-26.358032	123.83923	-7.268528	12.515087
1448102446151	2.479400634765625	0.487762451171875	12.560562133789063	-5.866076529732812	0	-27.479553	-18.391418	-26.358032	123.91168	-7.0237217	12.498671
1448102446192	2.336578369140625	1.582733154296875	7.8902740478515625	-6.370092241927997	0	-26.966858	-18.560791	-26.855469	124.2894	-7.821385	12.611154
1448102446232	1.701019287109375	2.125457763671875	6.7667388916015625	-6.551877900898017	0	-27.819824	-19.410706	-25.361633	124.55551	-8.512607	12.101098
1448102446272	1.529632568359375	1.497039794921875	9.611282348632813	-6.251609885820487	0	-26.966858	-17.880249	-26.522827	124.69241	-8.166032	11.694723
1448102446313	2.179473876953125	0.428253173828125	12.546279907226563	-5.913785214011869	0	-26.966858	-17.880249	-25.85907	124.65411	-7.557397	11.9095125
1448102446353	2.005706787109375	0.494903564453125	12.558181762695313	-5.92603404717072	0	-26.115417	-18.051147	-26.02539	124.69049	-7.4828334	12.037855
1448102446393	1.891448974609375	1.911224365234375	6.9405059814453125	-6.528921046641532	0	-26.115417	-19.070435	-27.020264	124.80197	-8.404593	11.902959
1448102446433	1.958099365234375	1.744598388671875	7.9497833251953125	-6.3930269336805505	0	-25.43335	-18.391418	-24.699402	124.71719	-8.54693	11.731963
1448102446474	1.667694091796875	1.620819091796875	8.609146118164063	-6.35730162181382	0	-26.797485	-18.730164	-25.361633	124.64917	-8.415688	11.759308
1448102446514	2.272308349609375	1.042388916015625	9.815994262695313	-6.182970393056112	0	-26.455688	-17.370605	-25.030518	124.50351	-7.931775	11.809343
1448102446554	2.024749755859375	0.759124755859375	11.260879516601563	-6.0589668765045435	0	-25.77362	-18.391418	-26.358032	124.41638	-7.543411	11.773512
1448102446594	2.315155029296875	1.846954345703125	7.6474761962890625	-6.370092241927997	0	-27.137756	-19.070435	-26.689148	124.57861	-8.178323	11.931284
1448102446635	1.636749267578125	1.913604736328125	7.2594757080078125	-6.518769452068117	0	-26.455688	-19.070435	-27.020264	124.64023	-8.577272	11.679966
1448102446675	1.862884521484375	1.511322021484375	8.861465454101563	-6.308647456429645	0	-27.137756	-19.070435	-27.684021	124.62872	-8.337076	11.501994
1448102446715	1.881927490234375	1.161407470703125	10.518203735351563	-6.124000551744859	0	-27.308655	-18.560791	-26.191711	124.59952	-7.75451	11.558618
1448102446755	1.834320068359375	0.366363525390625	12.079727172851563	-6.02765692466775	0	-25.262451	-18.560791	-26.855469	124.63992	-7.4209876	11.62165
1448102446796	2.193756103515625	1.618438720703125	8.678176879882813	-6.272428003039246	0	-28.161621	-20.089722	-26.02539	124.85803	-7.984006	11.8554535
1448102446836	2.067596435546875	2.070709228515625	7.1642608642578125	-6.444671010815322	0	-26.28479	-18.22052	-26.522827	124.99161	-8.659335	11.755124
1448102446876	1.734344482421875	1.737457275390625	8.066421508789063	-6.40980397041542	0	-26.966858	-18.560791	-26.191711	124.90759	-8.606024	11.470634
1448102446916	1.867645263671875	1.101898193359375	9.696975708007813	-6.2475946382396295	0	-26.115417	-19.410706	-27.020264	124.82666	-8.0436125	11.536646
1448102446957	2.181854248046875	1.094757080078125	12.432022094726563	-5.843188158814231	0	-25.091553	-17.03186	-24.699402	124.72327	-7.371892	11.372697
1448102446997	1.791473388671875	1.070953369140625	11.087112426757813	-6.07169181042287	0	-25.944519	-18.22052	-26.191711	124.80582	-7.4858274	11.500611
1448102447037	2.305633544921875	1.649383544921875	8.513931274414063	-6.275460189080895	0	-25.944519	-18.22052	-26.191711	124.89328	-7.8813515	11.591905
1448102447077	2.305633544921875	1.649383544921875	8.513931274414063	-6.275460189080895	0	-25.944519	-18.22052	-26.191711	124.89328	-7.8813515	11.591905
1448102447117	1.698638916015625	1.447052001953125	9.644607543945313	-6.2302473241703265	0	-27.479553	-18.391418	-27.020264	124.87863	-8.151703	11.160156
1448102447158	2.136627197265625	1.101898193359375	10.956192016601563	-6.039012256200717	0	-26.115417	-18.051147	-27.020264	124.78656	-7.6106715	11.158248
1448102447198	1.601043701171875	0.604400634765625	11.994033813476563	-6.038380506736097	0	-25.262451	-17.201233	-25.85907	124.83716	-7.5320444	11.247329
1448102447238	2.162811279296875	1.882659912109375	7.6046295166015625	-6.393375614172456	0	-26.28479	-17.541504	-26.191711	124.9924	-8.304597	11.421286
1448102447279	1.853363037109375	1.973114013671875	7.2190093994140625	-6.483124943647791	0	-26.626587	-18.560791	-24.533081	125.02341	-8.851951	11.193496
1448102447319	1.567718505859375	1.658905029296875	8.542495727539063	-6.375985002263397	0	-25.43335	-19.070435	-26.358032	124.96063	-8.627687	11.077225
1448102447359	1.946197509765625	0.909088134765625	9.808853149414063	-6.247929069168475	0	-25.262451	-18.901062	-25.527954	124.883514	-8.017907	11.167264
1448102447400	1.822418212890625	0.435394287109375	12.127334594726563	-6.013824354812618	0	-26.115417	-19.74945	-25.694275	124.80551	-7.362325	10.900539
1448102447440	1.834320068359375	1.328033447265625	10.684829711914063	-6.085419645926972	0	-27.479553	-18.391418	-26.358032	124.92285	-7.4942102	11.131943
1448102447480	1.777191162109375	1.804107666015625	6.9571685791015625	-6.560299427467234	0	-26.455688	-20.429993	-26.358032	125.04443	-8.331369	11.128718
1448102447520	1.570098876953125	1.530364990234375	8.687698364257813	-6.373210678724984	0	-25.602722	-17.880249	-26.855469	125.02869	-8.350777	10.832147
1448102447561	1.660552978515625	1.335174560546875	9.775527954101563	-6.232910660792678	0	-25.602722	-17.880249	-26.855469	124.98764	-8.123064	10.922773
1448102447602	2.169952392578125	0.690093994140625	10.934768676757813	-6.092462810358701	0	-25.262451	-19.239807	-26.855469	124.83859	-7.585606	10.917756
1448102447642	1.629608154296875	1.068572998046875	10.846694946289063	-6.12626358893201	0	-26.626587	-19.92035	-26.191711	124.94711	-7.671484	10.992521
1448102447682	1.991424560546875	1.542266845703125	8.851943969726563	-6.280182105174528	0	-26.626587	-19.92035	-26.191711	125.01657	-7.9803543	11.083415
1448102447722	1.651031494140625	1.742218017578125	7.9640655517578125	-6.436538418444469	0	-26.455688	-17.710876	-26.02539	125.06351	-8.558482	10.943512
1448102447763	1.686737060546875	1.449432373046875	9.194717407226563	-6.29506374918038	0	-26.115417	-18.730164	-25.694275	124.98743	-8.299266	10.884863
1448102447803	1.965240478515625	1.182830810546875	10.339675903320313	-6.134033160256601	0	-24.92218	-18.901062	-26.191711	124.91492	-7.876839	10.867828
1448102447843	1.762908935546875	0.544891357421875	11.608413696289063	-6.076155791965545	0	-25.091553	-18.391418	-26.02539	124.9465	-7.6761518	10.905088
1448102447883	2.086639404296875	1.689849853515625	8.578201293945313	-6.291676024754189	0	-25.77362	-19.070435	-27.020264	125.07303	-8.133247	11.07326
1448102447925	1.746246337890625	1.889801025390625	7.3285064697265625	-6.495323232194594	0	-26.115417	-18.391418	-26.358032	125.131744	-8.631771	10.880773
1448102447965	1.627227783203125	1.489898681640625	8.666275024414063	-6.373904049401139	0	-25.091553	-18.051147	-26.02539	125.079346	-8.464259	10.750778
1448102448005	1.501068115234375	0.390167236328125	9.811233520507813	-6.385712853064236	0	-25.602722	-18.560791	-26.855469	125.00635	-8.0036545	10.815701
1448102448045	2.174713134765625	1.394683837890625	11.974990844726563	-5.863962834677427	0	-26.115417	-18.730164	-26.358032	124.88721	-7.4487057	10.714989
1448102448086	1.779571533203125	1.197113037109375	11.210891723632813	-6.0399600790697665	0	-26.966858	-18.560791	-26.855469	124.92801	-7.544604	10.886164
1448102448126	1.962860107421875	1.977874755859375	7.1047515869140625	-6.483124943647791	0	-25.091553	-18.391418	-27.352905	125.01892	-8.296426	10.8990965
1448102448166	1.551055908203125	1.616058349609375	7.8783721923828125	-6.483124943647791	0	-26.115417	-20.089722	-26.358032	125.00867	-8.457021	10.663164
1448102448206	1.655792236328125	1.420867919921875	9.482742309570313	-6.262675273680278	0	-26.797485	-17.03186	-26.358032	124.933716	-8.132578	10.706963
1448102448246	1.872406005859375	1.373260498046875	10.296829223632813	-6.126586993563873	0	-26.797485	-18.051147	-26.358032	124.86334	-7.8935714	10.759499
