timestamp	accel_x	accel_y	accel_z	accel_mag	temperature	mag_x	mag_y	mag_z	azimuth	pitch	roll
1448090676034	-0.215301513671875	9.859130859375	2.055084228515625	-6.38623253813004	0	-7.319641	-27.719116	-26.998901	23.658203	-78.669106	-1.2202158
1448090676074	-0.177215576171875	9.8638916015625	2.038421630859375	-6.382407006570745	0	-7.1395874	-27.778625	-26.818848	23.618073	-78.65625	-1.2154182
1448090676116	-0.174835205078125	9.888885498046875	2.000335693359375	-6.383971479939997	0	-7.258606	-27.659607	-26.939392	23.539246	-78.641525	-1.2140468
1448090676156	-0.21173095703125	9.897216796875	2.0086669921875	-6.386928549110126	0	-7.258606	-27.598572	-26.579285	23.447327	-78.62799	-1.2183704
1448090676197	-0.195068359375	9.896026611328125	2.0181884765625	-6.38327607017454	0	-7.6797485	-27.598572	-25.979614	23.42514	-78.623276	-1.2166744
1448090676237	-0.16888427734375	9.893646240234375	2.00628662109375	-6.381538163480201	0	-7.6797485	-27.719116	-25.91858	23.39441	-78.62218	-1.2083603
1448090676277	-0.17840576171875	9.8876953125	1.994384765625	-6.385536668752499	0	-8.279419	-27.418518	-25.559998	23.411804	-78.6016	-1.2044132
1448090676317	-0.20458984375	9.905548095703125	2.0277099609375	-6.38188567426557	0	-8.279419	-27.359009	-25.619507	23.425598	-78.59638	-1.2051792
1448090676362	-0.196258544921875	9.862701416015625	2.021759033203125	-6.387798762095567	0	-8.279419	-27.479553	-26.039124	23.467194	-78.57962	-1.2048736
1448090676409	-0.20697021484375	9.903167724609375	2.013427734375	-6.384667031027547	0	-8.338928	-26.939392	-26.219177	23.508759	-78.57436	-1.2038933
1448090676449	-0.203399658203125	9.869842529296875	2.0181884765625	-6.38832099622394	0	-8.459473	-27.059937	-26.219177	23.525665	-78.56849	-1.2075677
1448090676489	-0.184356689453125	9.881744384765625	1.99676513671875	-6.386928549110126	0	-8.81958	-26.879883	-26.399231	23.54361	-78.57144	-1.2071468
1448090676530	-0.1998291015625	9.8638916015625	2.031280517578125	-6.3867545330851385	0	-8.518982	-27.059937	-26.159668	23.588104	-78.55905	-1.2092261
1448090676570	-0.208160400390625	9.86865234375	1.995574951171875	-6.392501745038486	0	-8.699036	-27.178955	-25.979614	23.608734	-78.54932	-1.2067616
1448090676610	-0.186737060546875	9.912689208984375	2.016998291015625	-6.379801138167995	0	-8.699036	-27.23999	-25.738525	23.640198	-78.545334	-1.2041204
1448090676650	-0.185546875	9.840087890625	1.981292724609375	-6.395466208980601	0	-8.279419	-27.598572	-25.738525	23.672272	-78.54239	-1.2005311
1448090676691	-0.191497802734375	9.9019775390625	2.033660888671875	-6.379627484061187	0	-8.099365	-27.479553	-26.039124	23.686707	-78.53521	-1.1998686
1448090676731	-0.1998291015625	9.888885498046875	2.012237548828125	-6.385884585746353	0	-8.039856	-27.178955	-26.039124	23.688568	-78.52937	-1.2024363
1448090676771	-0.20220947265625	9.8829345703125	1.96820068359375	-6.393547732417506	0	-7.798767	-27.359009	-26.45874	23.665009	-78.5336	-1.2011639
1448090676811	-0.185546875	9.860321044921875	2.059844970703125	-6.381016963402434	0	-7.6797485	-27.059937	-26.399231	23.639496	-78.517624	-1.1964493
1448090676852	-0.172454833984375	9.90435791015625	2.002716064453125	-6.381016963402434	0	-7.9193115	-27.178955	-26.278687	23.5979	-78.51931	-1.1885962
1448090676892	-0.22125244140625	9.855560302734375	2.02056884765625	-6.392676054012863	0	-8.279419	-27.359009	-26.339722	23.60434	-78.51425	-1.1943101
1448090676932	-0.17840576171875	9.867462158203125	2.019378662109375	-6.38484094089111	0	-8.338928	-27.2995	-26.219177	23.61795	-78.50558	-1.1937413
1448090676972	-0.193878173828125	9.874603271484375	2.01104736328125	-6.387276607728145	0	-8.459473	-27.119446	-26.278687	23.62674	-78.49795	-1.1944765
1448090677012	-0.205780029296875	9.8829345703125	2.012237548828125	-6.387624701779237	0	-8.338928	-26.939392	-26.278687	23.641968	-78.492386	-1.1960828
1448090677064	-0.21173095703125	9.884124755859375	2.024139404296875	-6.386580525914362	0	-8.099365	-27.119446	-26.399231	23.644745	-78.492455	-1.1975251
1448090677104	-0.210540771484375	9.87579345703125	2.04913330078125	-6.383971479939997	0	-8.338928	-26.519775	-26.219177	23.645721	-78.48617	-1.200204
1448090677144	-0.189117431640625	9.90435791015625	2.00152587890625	-6.383623757397391	0	-8.758545	-26.519775	-25.85907	23.675995	-78.48065	-1.1985106
1448090677185	-0.208160400390625	9.888885498046875	2.024139404296875	-6.385362723523384	0	-8.699036	-26.219177	-25.79956	23.7052	-78.47887	-1.1956525
1448090677225	-0.20697021484375	9.8876953125	2.013427734375	-6.386928549110126	0	-9.1796875	-26.159668	-25.619507	23.761688	-78.4829	-1.1987541
1448090677265	-0.19744873046875	9.879364013671875	1.9896240234375	-6.390236537685045	0	-8.938599	-26.278687	-25.85907	23.781006	-78.487724	-1.1970999
1448090677312	-0.195068359375	9.879364013671875	2.02056884765625	-6.385362723523384	0	-8.399963	-26.579285	-26.159668	23.821655	-78.48491	-1.1928772
1448090677352	-0.198638916015625	9.876983642578125	2.019378662109375	-6.386406527596446	0	-8.338928	-26.818848	-26.219177	23.829834	-78.48267	-1.1921616
1448090677392	-0.195068359375	9.867462158203125	2.0086669921875	-6.3888433101498245	0	-8.099365	-27.178955	-26.638794	23.817932	-78.48459	-1.1888541
1448090677433	-0.201019287109375	9.867462158203125	2.038421630859375	-6.385362723523384	0	-7.978821	-27.2995	-26.278687	23.800446	-78.4799	-1.1899182
1448090677473	-0.191497802734375	9.8829345703125	1.97772216796875	-6.39058493335482	0	-8.21991	-26.998901	-26.278687	23.782928	-78.48396	-1.1873726
1448090677513	-0.195068359375	9.88055419921875	2.05865478515625	-6.379627484061187	0	-8.279419	-27.059937	-26.219177	23.77893	-78.47762	-1.1839336
1448090677553	-0.21649169921875	9.888885498046875	2.045562744140625	-6.383449909371668	0	-8.399963	-26.818848	-26.098633	23.787903	-78.46964	-1.1872914
1448090677593	-0.18792724609375	9.879364013671875	2.02056884765625	-6.384319237813125	0	-8.21991	-26.939392	-26.399231	23.786896	-78.46697	-1.1856441
1448090677634	-0.201019287109375	9.878173828125	2.016998291015625	-6.386928549110126	0	-8.1588745	-27.359009	-26.399231	23.780548	-78.46465	-1.1833888
1448090677685	-0.1998291015625	9.9019775390625	1.997955322265625	-6.386058557513792	0	-8.399963	-27.418518	-26.69983	23.76181	-78.46974	-1.1812829
1448090677732	-0.20220947265625	9.881744384765625	2.02294921875	-6.385710622826371	0	-8.639526	-27.598572	-26.45874	23.768219	-78.47221	-1.1833042
1448090677772	-0.196258544921875	9.88055419921875	1.9991455078125	-6.388495091997704	0	-8.81958	-27.359009	-26.45874	23.793365	-78.47031	-1.1846911
1448090677812	-0.205780029296875	9.876983642578125	1.986053466796875	-6.392327444963111	0	-8.879089	-27.23999	-26.579285	23.821198	-78.46881	-1.1831369
1448090677852	-0.189117431640625	9.849609375	1.997955322265625	-6.392153153785374	0	-8.938599	-26.818848	-26.519775	23.852753	-78.46859	-1.1840941
1448090677893	-0.1807861328125	9.888885498046875	1.9991455078125	-6.385014859594039	0	-8.879089	-26.638794	-26.579285	23.878601	-78.46641	-1.1827192
1448090677933	-0.215301513671875	9.86865234375	2.03009033203125	-6.388495091997704	0	-8.518982	-26.818848	-26.45874	23.897491	-78.45895	-1.1850599
1448090677985	-0.196258544921875	9.865081787109375	2.0181884765625	-6.387972831274226	0	-8.81958	-26.69983	-26.159668	23.900543	-78.4592	-1.1836073
1448090678026	-0.208160400390625	9.878173828125	2.016998291015625	-6.387972831274226	0	-8.879089	-26.69983	-25.91858	23.934174	-78.45978	-1.181634
1448090678066	-0.20458984375	9.896026611328125	1.967010498046875	-6.392153153785374	0	-8.699036	-26.579285	-26.219177	23.969147	-78.457085	-1.181546
1448090678106	-0.2188720703125	9.850799560546875	2.080078125	-6.384319237813125	0	-8.879089	-26.759338	-25.91858	23.980225	-78.46767	-1.1777749
1448090678146	-0.210540771484375	9.89007568359375	2.002716064453125	-6.388669196639215	0	-8.639526	-26.879883	-26.039124	24.033234	-78.45765	-1.1854391
1448090678187	-0.19268798828125	9.88055419921875	2.026519775390625	-6.383971479939997	0	-8.399963	-26.879883	-26.45874	24.041534	-78.463715	-1.1917797
1448090678227	-0.191497802734375	9.872222900390625	2.03961181640625	-6.383102239804661	0	-8.699036	-26.879883	-26.039124	24.042664	-78.4566	-1.1902777
1448090678267	-0.20697021484375	9.87103271484375	2.00152587890625	-6.391107593493106	0	-8.459473	-26.638794	-25.91858	24.04831	-78.46384	-1.185727
1448090678308	-0.208160400390625	9.891265869140625	1.9896240234375	-6.390062353172805	0	-8.578491	-26.759338	-25.979614	24.057953	-78.47203	-1.1893238
1448090678348	-0.20220947265625	9.879364013671875	2.038421630859375	-6.3837976142530515	0	-8.578491	-26.818848	-25.679016	24.082031	-78.47301	-1.1918788
1448090678389	-0.170074462890625	9.8924560546875	2.007476806640625	-6.381711914465306	0	-8.699036	-27.059937	-25.91858	24.103424	-78.48	-1.1913153
1448090678429	-0.195068359375	9.872222900390625	2.0372314453125	-6.383971479939997	0	-8.639526	-26.998901	-26.399231	24.12674	-78.478966	-1.1847543
1448090678469	-0.1807861328125	9.860321044921875	2.057464599609375	-6.380669540735138	0	-8.099365	-26.998901	-26.638794	24.124573	-78.46882	-1.1804366
1448090678509	-0.189117431640625	9.888885498046875	1.9705810546875	-6.390410731078596	0	-8.039856	-27.059937	-26.759338	24.090515	-78.4643	-1.1787663
1448090678550	-0.217681884765625	9.869842529296875	2.00152587890625	-6.392850371887606	0	-8.039856	-26.939392	-26.45874	24.044525	-78.476776	-1.1815451
1448090678590	-0.195068359375	9.876983642578125	2.00390625	-6.388146909316565	0	-8.099365	-27.359009	-26.519775	24.052124	-78.47077	-1.1846355
1448090678630	-0.195068359375	9.876983642578125	2.00390625	-6.388146909316565	0	-7.739258	-27.2995	-26.579285	24.052124	-78.47077	-1.1846355
1448090678671	-0.19744873046875	9.857940673828125	2.021759033203125	-6.388669196639215	0	-7.739258	-27.479553	-26.45874	24.048248	-78.481766	-1.1867312
1448090678711	-0.16888427734375	9.865081787109375	2.036041259765625	-6.3813644213089145	0	-7.798767	-27.719116	-26.519775	24.048248	-78.481766	-1.1867312
1448090678751	-0.198638916015625	9.89483642578125	2.005096435546875	-6.385884585746353	0	-7.798767	-27.659607	-26.278687	24.036255	-78.48549	-1.179218
1448090678791	-0.184356689453125	9.85675048828125	1.993194580078125	-6.391107593493106	0	-7.978821	-26.998901	-25.91858	24.04007	-78.48516	-1.1819909
1448090678832	-0.186737060546875	9.87579345703125	2.026519775390625	-6.3837976142530515	0	-8.1588745	-27.119446	-26.159668	24.034515	-78.48431	-1.1773266
1448090678872	-0.176025390625	9.869842529296875	1.983673095703125	-6.389365703909812	0	-8.1588745	-27.059937	-26.098633	24.027832	-78.491615	-1.1755503
1448090678912	-0.179595947265625	9.891265869140625	1.9801025390625	-6.387276607728145	0	-8.338928	-26.879883	-25.979614	24.027832	-78.491615	-1.1755503
1448090678952	-0.208160400390625	9.857940673828125	2.009857177734375	-6.387102573990678	0	-8.518982	-26.998901	-25.91858	24.024048	-78.501816	-1.1773368
1448090678993	-0.191497802734375	9.881744384765625	2.02056884765625	-6.384493130002001	0	-8.639526	-26.998901	-25.979614	24.02539	-78.49697	-1.176137
1448090679033	-0.210540771484375	9.8734130859375	2.01580810546875	-6.389191563783767	0	-8.578491	-26.69983	-26.219177	24.02713	-78.49441	-1.1763018
1448090679079	-0.1903076171875	9.89007568359375	2.024139404296875	-6.382580801645071	0	-8.459473	-26.638794	-26.399231	24.033325	-78.49501	-1.1813564
1448090679119	-0.198638916015625	9.891265869140625	2.00628662109375	-6.38623253813004	0	-8.21991	-27.059937	-26.879883	24.028046	-78.493866	-1.1767476
1448090679160	-0.191497802734375	9.893646240234375	2.0181884765625	-6.383102239804661	0	-8.279419	-27.23999	-26.818848	24.028625	-78.49164	-1.1761669
1448090679200	-0.198638916015625	9.859130859375	2.026519775390625	-6.387972831274226	0	-8.1588745	-27.719116	-26.759338	24.030914	-78.487976	-1.1762506
1448090679240	-0.2283935546875	9.900787353515625	2.024139404296875	-6.386580525914362	0	-8.1588745	-27.719116	-26.638794	24.037598	-78.484665	-1.1798586
1448090679280	-0.179595947265625	9.891265869140625	1.990814208984375	-6.385710622826371	0	-8.21991	-27.598572	-26.818848	24.033875	-78.483315	-1.1763616
1448090679321	-0.214111328125	9.886505126953125	2.005096435546875	-6.389365703909812	0	-8.039856	-27.418518	-26.818848	24.039246	-78.48002	-1.1789721
1448090679361	-0.18792724609375	9.886505126953125	2.009857177734375	-6.38484094089111	0	-8.039856	-27.178955	-26.69983	24.03894	-78.47776	-1.1777006
1448090679401	-0.184356689453125	9.8734130859375	2.009857177734375	-6.38623253813004	0	-7.6797485	-27.119446	-26.998901	24.035278	-78.47122	-1.1718612
1448090679441	-0.196258544921875	9.85198974609375	1.994384765625	-6.393373378927664	0	-7.6797485	-27.359009	-26.818848	24.036682	-78.47025	-1.1724932
1448090679482	-0.189117431640625	9.834136962890625	2.038421630859375	-6.388495091997704	0	-8.1588745	-26.818848	-26.159668	24.03897	-78.46569	-1.1721584
1448090679522	-0.22601318359375	9.9019775390625	2.00628662109375	-6.388669196639215	0	-8.399963	-26.519775	-25.979614	24.040833	-78.47077	-1.1759294
1448090679562	-0.20458984375	9.89483642578125	1.990814208984375	-6.3888433101498245	0	-8.338928	-26.638794	-25.85907	24.043427	-78.46943	-1.177313
1448090679602	-0.195068359375	9.90435791015625	1.9991455078125	-6.38484094089111	0	-8.459473	-26.159668	-25.79956	24.039795	-78.478714	-1.1788021
1448090679657	-0.185546875	9.860321044921875	2.04913330078125	-6.382580801645071	0	-8.578491	-26.638794	-26.278687	24.03769	-78.48159	-1.1785256
1448090679697	-0.17840576171875	9.905548095703125	2.012237548828125	-6.380322153296306	0	-8.399963	-26.998901	-26.399231	24.036133	-78.47427	-1.173938
1448090679738	-0.1998291015625	9.87579345703125	2.02056884765625	-6.386580525914362	0	-8.699036	-26.998901	-26.519775	24.045471	-78.4724	-1.1802462
1448090679778	-0.195068359375	9.872222900390625	2.05865478515625	-6.380843247664558	0	-8.639526	-26.939392	-26.579285	24.05014	-78.46503	-1.1804528
1448090679818	-0.177215576171875	9.878173828125	1.97772216796875	-6.389191563783767	0	-8.099365	-27.119446	-26.818848	24.060303	-78.464005	-1.1877859
1448090679858	-0.18316650390625	9.91387939453125	2.00628662109375	-6.380669540735138	0	-8.279419	-27.119446	-26.638794	24.046082	-78.47445	-1.1816826
1448090679904	-0.214111328125	9.831756591796875	2.02056884765625	-6.395117314813378	0	-8.279419	-27.418518	-26.759338	24.050415	-78.47384	-1.1847303
1448090679944	-0.191497802734375	9.93292236328125	2.014617919921875	-6.37789142672219	0	-8.338928	-27.539063	-26.818848	24.038788	-78.48204	-1.1795657
1448090679984	-0.20697021484375	9.867462158203125	2.01580810546875	-6.3895398529103815	0	-8.578491	-27.178955	-26.759338	24.04123	-78.48098	-1.1809559
1448090680027	-0.195068359375	9.8829345703125	2.016998291015625	-6.385362723523384	0	-8.338928	-27.178955	-26.45874	24.041748	-78.476036	-1.1790601
1448090680068	-0.23077392578125	9.86865234375	2.03485107421875	-6.390062353172805	0	-8.338928	-26.998901	-26.098633	24.031647	-78.48493	-1.1753949
1448090680116	-0.195068359375	9.88531494140625	2.032470703125	-6.382754605541271	0	-8.399963	-26.998901	-26.098633	24.0354	-78.47963	-1.1758312
1448090680156	-0.201019287109375	9.8543701171875	2.013427734375	-6.3909333645607145	0	-8.338928	-27.418518	-26.098633	24.026093	-78.488625	-1.1728219
1448090680199	-0.191497802734375	9.90911865234375	2.028900146484375	-6.379280202243486	0	-7.978821	-27.598572	-26.45874	24.031006	-78.482735	-1.1739013
1448090680239	-0.1712646484375	9.8734130859375	2.00152587890625	-6.385536668752499	0	-8.039856	-27.95868	-26.638794	24.030853	-78.477135	-1.1711985
1448090680285	-0.203399658203125	9.90435791015625	2.00628662109375	-6.385014859594039	0	-7.978821	-27.719116	-26.45874	24.02539	-78.48196	-1.1692183
1448090680326	-0.198638916015625	9.881744384765625	2.014617919921875	-6.386406527596446	0	-7.6797485	-27.178955	-26.45874	24.03186	-78.47742	-1.1721106
1448090680366	-0.2093505859375	9.874603271484375	2.019378662109375	-6.38832099622394	0	-7.9193115	-26.998901	-26.399231	24.031494	-78.48745	-1.1764393
1448090680406	-0.184356689453125	9.893646240234375	2.007476806640625	-6.383623757397391	0	-8.338928	-26.579285	-26.159668	24.030518	-78.49037	-1.1770431
1448090680446	-0.198638916015625	9.849609375	1.994384765625	-6.394070846335612	0	-8.279419	-26.759338	-26.278687	24.033447	-78.49248	-1.1802778
1448090680487	-0.210540771484375	9.8638916015625	1.978912353515625	-6.395989617151535	0	-8.21991	-27.059937	-26.519775	24.03482	-78.4978	-1.1837944
1448090680527	-0.1998291015625	9.88055419921875	2.045562744140625	-6.382233220316948	0	-8.279419	-27.178955	-26.69983	24.036102	-78.48829	-1.1803752
1448090680567	-0.198638916015625	9.905548095703125	2.03009033203125	-6.380669540735138	0	-7.9193115	-27.23999	-26.879883	24.03775	-78.4858	-1.1804938
1448090680620	-0.18792724609375	9.87579345703125	1.976531982421875	-6.3912818313136075	0	-7.978821	-27.178955	-27.178955	24.022705	-78.497955	-1.1745316
1448090680666	-0.189117431640625	9.857940673828125	1.9991455078125	-6.390759144515073	0	-8.039856	-26.939392	-26.998901	24.02536	-78.497795	-1.176511
1448090680706	-0.20220947265625	9.88055419921875	1.997955322265625	-6.3895398529103815	0	-8.099365	-26.818848	-26.278687	24.025787	-78.5027	-1.1790909
1448090680747	-0.19268798828125	9.88055419921875	2.009857177734375	-6.386406527596446	0	-8.039856	-26.879883	-25.738525	24.024567	-78.50253	-1.1780849
1448090680787	-0.1998291015625	9.872222900390625	1.986053466796875	-6.392153153785374	0	-7.9193115	-27.2995	-25.679016	24.029419	-78.49833	-1.179867
1448090680827	-0.20458984375	9.8734130859375	2.024139404296875	-6.387102573990678	0	-7.9193115	-27.539063	-25.559998	24.028503	-78.49847	-1.1792377
1448090680867	-0.2188720703125	9.86865234375	2.047943115234375	-6.386406527596446	0	-7.9193115	-27.598572	-26.159668	24.043762	-78.48579	-1.1851393
1448090680908	-0.19268798828125	9.869842529296875	1.997955322265625	-6.3897140107868315	0	-7.978821	-27.659607	-26.638794	24.03711	-78.4838	-1.1790848
1448090680948	-0.21173095703125	9.881744384765625	1.995574951171875	-6.391107593493106	0	-8.099365	-27.479553	-26.818848	24.038696	-78.48727	-1.1818986
1448090680988	-0.198638916015625	9.860321044921875	2.02056884765625	-6.388669196639215	0	-7.978821	-27.2995	-26.879883	24.036926	-78.48638	-1.1801249
1448090681028	-0.195068359375	9.8924560546875	2.005096435546875	-6.385710622826371	0	-8.039856	-26.998901	-26.879883	24.039337	-78.483574	-1.1807022
1448090681068	-0.208160400390625	9.87579345703125	2.01104736328125	-6.389191563783767	0	-8.21991	-26.879883	-26.818848	24.042389	-78.48307	-1.1828235
1448090681120	-0.203399658203125	9.886505126953125	2.021759033203125	-6.385362723523384	0	-8.399963	-26.879883	-26.278687	24.049011	-78.47935	-1.1861898
1448090681160	-0.196258544921875	9.89483642578125	2.02294921875	-6.382928418260686	0	-8.338928	-26.818848	-26.399231	24.04889	-78.478676	-1.1857926
1448090681204	-0.203399658203125	9.884124755859375	2.00390625	-6.38832099622394	0	-8.518982	-26.818848	-26.098633	24.046173	-78.484886	-1.1865655
1448090681244	-0.198638916015625	9.88055419921875	2.036041259765625	-6.383449909371668	0	-8.21991	-26.879883	-26.219177	24.04721	-78.48505	-1.1874409
1448090681287	-0.195068359375	9.88531494140625	2.03961181640625	-6.381711914465306	0	-7.8598022	-27.059937	-26.579285	24.044373	-78.49048	-1.1877644
1448090681327	-0.18792724609375	9.8829345703125	2.014617919921875	-6.384667031027547	0	-7.9193115	-27.178955	-26.579285	24.045074	-78.48625	-1.1863596
1448090681368	-0.195068359375	9.86627197265625	2.0181884765625	-6.387624701779237	0	-7.798767	-27.418518	-26.339722	24.04895	-78.483665	-1.1881402
1448090681409	-0.20458984375	9.88531494140625	2.02294921875	-6.385536668752499	0	-7.6797485	-27.359009	-26.339722	24.049683	-78.483864	-1.1888037
1448090681452	-0.19268798828125	9.893646240234375	2.033660888671875	-6.381016963402434	0	-8.039856	-27.479553	-26.159668	24.049438	-78.472595	-1.1834067
1448090681492	-0.17364501953125	9.886505126953125	2.02532958984375	-6.380495842612833	0	-8.21991	-27.2995	-26.039124	24.047089	-78.46792	-1.1794307
1448090681532	-0.1998291015625	9.8829345703125	2.016998291015625	-6.386058557513792	0	-7.8598022	-27.178955	-26.45874	24.04663	-78.46434	-1.1774299
1448090681573	-0.20220947265625	9.8876953125	2.01580810546875	-6.384145354459573	0	-8.039856	-27.418518	-26.759338	24.039856	-78.46681	-1.1733496
1448090681613	-0.1807861328125	9.87103271484375	2.005096435546875	-6.3867545330851385	0	-7.978821	-27.418518	-26.879883	24.047852	-78.46652	-1.17937
1448090681653	-0.189117431640625	9.903167724609375	2.01104736328125	-6.382407006570745	0	-8.279419	-27.719116	-26.879883	24.040344	-78.47271	-1.1764666
1448090681693	-0.1998291015625	9.87103271484375	2.012237548828125	-6.388495091997704	0	-8.578491	-27.598572	-26.818848	24.047607	-78.47307	-1.1822146
1448090681734	-0.21173095703125	9.8876953125	2.016998291015625	-6.387102573990678	0	-8.578491	-27.418518	-26.638794	24.051483	-78.47407	-1.1856569
1448090681774	-0.1903076171875	9.8924560546875	1.9896240234375	-6.387276607728145	0	-8.578491	-27.418518	-26.579285	24.05362	-78.47572	-1.1880744
1448090681814	-0.18792724609375	9.897216796875	2.002716064453125	-6.384319237813125	0	-8.399963	-27.359009	-26.339722	24.043945	-78.48072	-1.1829268
1448090681854	-0.21173095703125	9.86865234375	2.01580810546875	-6.390062353172805	0	-8.338928	-27.178955	-26.278687	24.047943	-78.478714	-1.1850847
1448090681895	-0.210540771484375	9.89007568359375	2.019378662109375	-6.38623253813004	0	-8.099365	-26.939392	-26.399231	24.051666	-78.48299	-1.1899198
1448090681935	-0.195068359375	9.88531494140625	2.0181884765625	-6.38484094089111	0	-8.099365	-26.818848	-26.519775	24.053223	-78.481514	-1.1904271
1448090681975	-0.215301513671875	9.867462158203125	2.028900146484375	-6.3888433101498245	0	-8.1588745	-26.818848	-26.638794	24.063965	-78.47005	-1.1934006
1448090682015	-0.198638916015625	9.869842529296875	2.013427734375	-6.38832099622394	0	-8.399963	-26.998901	-26.638794	24.063965	-78.47005	-1.1934006
1448090682055	-0.210540771484375	9.8829345703125	2.038421630859375	-6.384493130002001	0	-8.21991	-27.2995	-26.939392	24.064117	-78.46829	-1.1927105
1448090682096	-0.217681884765625	9.86151123046875	2.026519775390625	-6.390410731078596	0	-8.459473	-27.418518	-26.939392	24.071472	-78.46708	-1.1978095
1448090682136	-0.18792724609375	9.893646240234375	1.993194580078125	-6.38623253813004	0	-8.639526	-26.818848	-27.119446	24.065033	-78.47228	-1.1952571
1448090682176	-0.2093505859375	9.8876953125	2.02532958984375	-6.385536668752499	0	-8.81958	-26.45874	-26.579285	24.065796	-78.469536	-1.194585
1448090682216	-0.185546875	9.879364013671875	2.00152587890625	-6.3867545330851385	0	-9.118652	-26.638794	-26.278687	24.061829	-78.472	-1.1926721
1448090682257	-0.176025390625	9.88531494140625	2.032470703125	-6.379974801075225	0	-8.879089	-26.638794	-25.85907	24.063324	-78.46477	-1.1904689
1448090682297	-0.20458984375	9.89007568359375	2.019378662109375	-6.385362723523384	0	-8.879089	-26.818848	-25.738525	24.065063	-78.464485	-1.1916825
1448090682337	-0.1903076171875	9.88055419921875	2.007476806640625	-6.386406527596446	0	-8.758545	-27.2995	-25.91858	24.054993	-78.4653	-1.1843059
1448090682377	-0.20697021484375	9.888885498046875	2.02294921875	-6.385362723523384	0	-8.639526	-27.359009	-25.738525	24.058014	-78.461754	-1.1849899
1448090682417	-0.193878173828125	9.872222900390625	2.016998291015625	-6.3867545330851385	0	-8.758545	-27.539063	-26.159668	24.057465	-78.46197	-1.1846578
1448090682458	-0.203399658203125	9.897216796875	2.002716064453125	-6.386580525914362	0	-8.639526	-27.598572	-26.039124	24.053406	-78.46815	-1.1844025
1448090682498	-0.201019287109375	9.888885498046875	2.021759033203125	-6.384667031027547	0	-8.758545	-27.539063	-25.979614	24.053955	-78.46687	-1.1842419
1448090682538	-0.22125244140625	9.879364013671875	1.9991455078125	-6.392327444963111	0	-8.578491	-26.939392	-26.098633	24.056519	-78.47169	-1.1884271
1448090682578	-0.217681884765625	9.867462158203125	2.02056884765625	-6.390410731078596	0	-8.399963	-26.879883	-26.339722	24.061523	-78.46993	-1.19148
1448090682619	-0.193878173828125	9.897216796875	2.01104736328125	-6.383971479939997	0	-8.338928	-26.69983	-26.278687	24.059387	-78.47191	-1.1907337
1448090682662	-0.18792724609375	9.87579345703125	2.014617919921875	-6.385710622826371	0	-8.758545	-26.579285	-26.399231	24.052216	-78.476425	-1.1873051
1448090682702	-0.191497802734375	9.878173828125	2.028900146484375	-6.3837976142530515	0	-8.938599	-26.998901	-26.69983	24.051178	-78.47419	-1.1854682
1448090682742	-0.196258544921875	9.898406982421875	2.005096435546875	-6.385014859594039	0	-8.999634	-26.879883	-26.219177	24.046967	-78.47862	-1.1842905
1448090682782	-0.184356689453125	9.88531494140625	2.0467529296875	-6.379106574529919	0	-9.059143	-26.998901	-26.519775	24.049011	-78.469215	-1.1815186
1448090682823	-0.18792724609375	9.87579345703125	2.013427734375	-6.385884585746353	0	-8.399963	-26.818848	-26.69983	24.04419	-78.46827	-1.1773624
1448090682863	-0.1807861328125	9.8829345703125	2.02294921875	-6.382407006570745	0	-8.518982	-26.998901	-26.519775	24.045868	-78.46657	-1.1778705
1448090682903	-0.201019287109375	9.88531494140625	1.969390869140625	-6.392850371887606	0	-8.399963	-26.998901	-26.638794	24.042175	-78.47591	-1.179353
1448090682943	-0.1903076171875	9.888885498046875	1.981292724609375	-6.38901743253089	0	-8.578491	-27.418518	-26.45874	24.042175	-78.482895	-1.1825656
1448090682984	-0.198638916015625	9.867462158203125	2.016998291015625	-6.388146909316565	0	-8.578491	-27.479553	-26.399231	24.043854	-78.48282	-1.1838235
1448090683024	-0.1903076171875	9.89007568359375	2.014617919921875	-6.383971479939997	0	-8.459473	-27.418518	-26.278687	24.047913	-78.48466	-1.1877978
1448090683064	-0.1807861328125	9.876983642578125	2.00390625	-6.386058557513792	0	-8.639526	-27.23999	-26.399231	24.043518	-78.4867	-1.185364
1448090683105	-0.208160400390625	9.89007568359375	1.99200439453125	-6.38988817754052	0	-8.459473	-26.939392	-26.339722	24.043213	-78.4902	-1.1867431
1448090683145	-0.193878173828125	9.869842529296875	1.993194580078125	-6.39058493335482	0	-8.518982	-27.178955	-26.45874	24.046936	-78.48997	-1.189498
1448090683185	-0.214111328125	9.881744384765625	1.9896240234375	-6.392327444963111	0	-8.459473	-27.059937	-26.45874	24.046936	-78.48997	-1.189498
1448090683226	-0.217681884765625	9.88055419921875	1.97296142578125	-6.395466208980601	0	-8.518982	-27.23999	-26.638794	24.048798	-78.49574	-1.1936107
1448090683266	-0.217681884765625	9.88531494140625	1.995574951171875	-6.391456078023577	0	-8.279419	-27.119446	-26.519775	24.051453	-78.498634	-1.1969812
1448090683306	-0.189117431640625	9.8829345703125	2.000335693359375	-6.386928549110126	0	-8.279419	-26.939392	-26.339722	24.04956	-78.49325	-1.1930376
1448090683346	-0.208160400390625	9.8876953125	1.98724365234375	-6.3909333645607145	0	-8.21991	-26.818848	-26.45874	24.04837	-78.497894	-1.1942785
1448090683388	-0.189117431640625	9.88531494140625	2.045562744140625	-6.379974801075225	0	-8.279419	-26.879883	-26.339722	24.050232	-78.49138	-1.1926908
1448090683428	-0.186737060546875	9.874603271484375	1.97296142578125	-6.3918045981173695	0	-8.279419	-26.818848	-26.339722	24.05655	-78.4868	-1.1954416
1448090683469	-0.18792724609375	9.884124755859375	2.0277099609375	-6.382580801645071	0	-8.578491	-26.879883	-26.339722	24.056122	-78.48287	-1.193287
1448090683509	-0.201019287109375	9.8734130859375	2.019378662109375	-6.387276607728145	0	-8.639526	-26.998901	-26.219177	24.057251	-78.4826	-1.1940342
1448090683549	-0.189117431640625	9.874603271484375	1.995574951171875	-6.3888433101498245	0	-8.639526	-26.879883	-26.278687	24.055542	-78.483246	-1.1930095
1448090683589	-0.201019287109375	9.874603271484375	1.997955322265625	-6.390236537685045	0	-8.758545	-27.119446	-26.219177	24.054321	-78.48514	-1.1929463
1448090683635	-0.176025390625	9.881744384765625	1.993194580078125	-6.38623253813004	0	-8.518982	-27.2995	-26.579285	24.045471	-78.490555	-1.1886543
1448090683675	-0.208160400390625	9.87579345703125	1.990814208984375	-6.392153153785374	0	-8.578491	-27.178955	-26.399231	24.045166	-78.489044	-1.1877047
1448090683719	-0.203399658203125	9.896026611328125	2.032470703125	-6.382407006570745	0	-8.578491	-27.178955	-26.039124	24.047424	-78.490974	-1.1903409
1448090683759	-0.222442626953125	9.87103271484375	2.01580810546875	-6.3912818313136075	0	-8.639526	-26.818848	-25.85907	24.05243	-78.49001	-1.193749
1448090683799	-0.19744873046875	9.88055419921875	2.0181884765625	-6.385884585746353	0	-8.518982	-27.178955	-26.039124	24.057709	-78.48544	-1.1957148
1448090683839	-0.20458984375	9.876983642578125	2.0181884765625	-6.387450650323881	0	-8.639526	-26.998901	-26.098633	24.064514	-78.48344	-1.2000118
1448090683879	-0.181976318359375	9.884124755859375	2.0181884765625	-6.383102239804661	0	-8.879089	-27.119446	-26.098633	24.06009	-78.48474	-1.1972015
1448090683920	-0.181976318359375	9.87579345703125	2.000335693359375	-6.386928549110126	0	-8.578491	-27.119446	-26.278687	24.057892	-78.48397	-1.1951724
1448090683960	-0.201019287109375	9.869842529296875	1.988433837890625	-6.392327444963111	0	-8.578491	-26.638794	-25.979614	24.05655	-78.487885	-1.1959317
1448090684000	-0.196258544921875	9.8876953125	2.03009033203125	-6.382928418260686	0	-8.459473	-26.759338	-25.79956	24.063751	-78.478	-1.1969018
1448090684040	-0.20458984375	9.857940673828125	2.033660888671875	-6.387972831274226	0	-7.978821	-26.939392	-26.219177	24.069183	-78.473206	-1.1988685
1448090684081	-0.201019287109375	9.893646240234375	1.993194580078125	-6.388146909316565	0	-8.279419	-26.998901	-26.098633	24.061829	-78.47627	-1.1946354
1448090684121	-0.19268798828125	9.88055419921875	1.988433837890625	-6.3895398529103815	0	-8.578491	-27.418518	-26.45874	24.047485	-78.48692	-1.1885176
1448090684165	-0.186737060546875	9.89483642578125	2.005096435546875	-6.384145354459573	0	-8.81958	-27.23999	-26.519775	24.044678	-78.48426	-1.185112
1448090684205	-0.18792724609375	9.884124755859375	2.002716064453125	-6.386058557513792	0	-9.118652	-26.879883	-26.098633	24.039246	-78.48624	-1.1818534
1448090684245	-0.196258544921875	9.878173828125	2.03485107421875	-6.383623757397391	0	-9.118652	-26.519775	-26.219177	24.035645	-78.488174	-1.1799815
1448090684286	-0.215301513671875	9.897216796875	2.02532958984375	-6.385014859594039	0	-9.118652	-26.579285	-25.85907	24.037231	-78.48484	-1.1796613
1448090684326	-0.210540771484375	9.8924560546875	2.01580810546875	-6.386406527596446	0	-8.938599	-26.69983	-25.318909	24.046356	-78.48503	-1.1867825
1448090684366	-0.184356689453125	9.878173828125	2.02056884765625	-6.383971479939997	0	-8.879089	-27.059937	-25.679016	24.047668	-78.48231	-1.1865313
1448090684406	-0.205780029296875	9.87579345703125	2.0086669921875	-6.379801138167995	0	-8.578491	-27.23999	-25.79956	24.05066	-78.474365	-1.1851462
1448090684447	-0.17364501953125	9.907928466796875	2.014617919921875	-6.378932955611425	0	-8.578491	-26.998901	-26.159668	24.045227	-78.476715	-1.1820678
1448090684487	-0.196258544921875	9.872222900390625	1.99200439453125	-6.390759144515073	0	-8.459473	-26.998901	-26.45874	24.042206	-78.48101	-1.1817218
1448090684527	-0.201019287109375	9.89959716796875	1.975341796875	-6.391630333624378	0	-8.699036	-26.098633	-26.339722	24.039368	-78.48732	-1.1824443
1448090684568	-0.205780029296875	9.87579345703125	2.062225341796875	-6.3813644213089145	0	-8.938599	-26.159668	-25.979614	24.044464	-78.48176	-1.1838073
1448090684608	-0.193878173828125	9.874603271484375	2.0086669921875	-6.387624701779237	0	-9.4192505	-26.098633	-26.039124	24.044342	-78.47891	-1.1823965
1448090684648	-0.198638916015625	9.9019775390625	1.995574951171875	-6.38623253813004	0	-9.239197	-26.399231	-26.219177	24.039063	-78.47945	-1.1785878
1448090684689	-0.19744873046875	9.874603271484375	2.0181884765625	-6.3867545330851385	0	-9.059143	-26.278687	-25.91858	24.034393	-78.484604	-1.1773674
1448090684729	-0.198638916015625	9.88531494140625	2.024139404296875	-6.384493130002001	0	-8.639526	-26.219177	-26.098633	24.038086	-78.48557	-1.1806467
1448090684769	-0.201019287109375	9.89007568359375	1.99676513671875	-6.3888433101498245	0	-8.639526	-26.219177	-25.979614	24.04007	-78.484375	-1.1816331
1448090684810	-0.198638916015625	9.872222900390625	2.016998291015625	-6.387450650323881	0	-8.758545	-26.759338	-26.098633	24.046753	-78.47801	-1.1838362
1448090684850	-0.191497802734375	9.869842529296875	2.043182373046875	-6.382928418260686	0	-8.999634	-26.759338	-26.399231	24.049591	-78.47239	-1.1834315
1448090684890	-0.203399658203125	9.8829345703125	2.007476806640625	-6.387972831274226	0	-9.239197	-26.69983	-26.399231	24.050323	-78.47442	-1.1849208
1448090684931	-0.17840576171875	9.8734130859375	2.0277099609375	-6.382754605541271	0	-9.239197	-26.399231	-26.278687	24.047699	-78.470184	-1.1809508
1448090684971	-0.19744873046875	9.878173828125	2.016998291015625	-6.386406527596446	0	-8.81958	-26.219177	-25.619507	24.051819	-78.467545	-1.1829011
1448090685012	-0.172454833984375	9.907928466796875	1.995574951171875	-6.381538163480201	0	-8.81958	-26.278687	-25.318909	24.049744	-78.468994	-1.1819814
1448090685053	-0.185546875	9.886505126953125	2.0277099609375	-6.38188567426557	0	-8.758545	-26.399231	-25.19989	24.04065	-78.47082	-1.1758194
1448090685093	-0.203399658203125	9.8829345703125	1.994384765625	-6.38988817754052	0	-9.059143	-26.339722	-25.079346	24.037354	-78.47573	-1.1755563
1448090685133	-0.191497802734375	9.878173828125	2.01580810546875	-6.385710622826371	0	-9.47876	-25.738525	-25.619507	24.040436	-78.475136	-1.1776562
1448090685174	-0.172454833984375	9.8829345703125	2.013427734375	-6.382580801645071	0	-9.47876	-26.159668	-25.979614	24.038818	-78.47677	-1.1771626
1448090685214	-0.208160400390625	9.879364013671875	2.000335693359375	-6.390236537685045	0	-9.539795	-26.278687	-26.039124	24.034515	-78.47935	-1.1750354
1448090685255	-0.191497802734375	9.87103271484375	2.033660888671875	-6.384145354459573	0	-9.539795	-26.638794	-25.979614	24.034607	-78.47132	-1.1713908
1448090685295	-0.20220947265625	9.88055419921875	2.007476806640625	-6.388146909316565	0	-9.719849	-26.519775	-25.91858	24.02774	-78.47698	-1.1687341
1448090685335	-0.185546875	9.88531494140625	2.0181884765625	-6.383449909371668	0	-9.539795	-26.339722	-25.379944	24.030182	-78.479294	-1.1716691
1448090685375	-0.18792724609375	9.88055419921875	2.002716064453125	-6.3867545330851385	0	-9.359741	-26.519775	-25.498962	24.028442	-78.48207	-1.1716084
1448090685416	-0.2093505859375	9.88055419921875	2.013427734375	-6.38832099622394	0	-9.298706	-26.219177	-25.559998	24.030396	-78.48433	-1.1741738
1448090685456	-0.195068359375	9.898406982421875	2.012237548828125	-6.3837976142530515	0	-8.938599	-26.278687	-25.498962	24.038452	-78.47766	-1.1772839
1448090685496	-0.193878173828125	9.8638916015625	1.9896240234375	-6.391978871503914	0	-9.47876	-26.098633	-25.79956	24.042145	-78.48311	-1.1826509
1448090685536	-0.18792724609375	9.888885498046875	2.009857177734375	-6.384493130002001	0	-9.298706	-26.098633	-25.85907	24.034607	-78.486305	-1.1783215
1448090685577	-0.185546875	9.874603271484375	1.97296142578125	-6.391630333624378	0	-8.999634	-26.399231	-25.79956	24.03595	-78.48206	-1.1773957
1448090685617	-0.189117431640625	9.872222900390625	1.976531982421875	-6.391978871503914	0	-9.239197	-26.69983	-25.91858	24.023163	-78.4954	-1.1737007
1448090685657	-0.20220947265625	9.88055419921875	2.021759033203125	-6.386058557513792	0	-9.059143	-26.69983	-25.91858	24.02832	-78.49087	-1.1755751
1448090685697	-0.189117431640625	9.8876953125	2.04437255859375	-6.379801138167995	0	-9.359741	-26.818848	-25.979614	24.033081	-78.485435	-1.174839
1448090685738	-0.186737060546875	9.878173828125	2.03485107421875	-6.384667031027547	0	-9.298706	-26.818848	-25.91858	24.037567	-78.473305	-1.1745853
1448090685778	-0.203399658203125	9.89007568359375	2.014617919921875	-6.385884585746353	0	-9.47876	-26.219177	-26.039124	24.042236	-78.47102	-1.1771268
1448090685818	-0.186737060546875	9.874603271484375	2.02056884765625	-6.38484094089111	0	-9.359741	-26.339722	-26.039124	24.041077	-78.47133	-1.1763839
1448090685859	-0.20458984375	9.879364013671875	2.032470703125	-6.385014859594039	0	-9.118652	-26.159668	-26.039124	24.0448	-78.47056	-1.1788893
1448090685899	-0.198638916015625	9.88055419921875	2.024139404296875	-6.385188787137681	0	-9.298706	-26.278687	-26.159668	24.044922	-78.4736	-1.1803948
1448090685939	-0.21649169921875	9.876983642578125	2.00628662109375	-6.3909333645607145	0	-9.059143	-26.519775	-26.159668	24.052094	-78.46671	-1.1827176
1448090685979	-0.189117431640625	9.88531494140625	2.0372314453125	-6.381190687950106	0	-9.1796875	-26.45874	-26.159668	24.053223	-78.474205	-1.187054
1448090686020	-0.203399658203125	9.8829345703125	1.993194580078125	-6.390062353172805	0	-9.1796875	-26.519775	-26.159668	24.053162	-78.474846	-1.1873152
1448090686060	-0.20220947265625	9.8924560546875	2.02294921875	-6.384145354459573	0	-9.059143	-26.399231	-26.098633	24.050415	-78.47366	-1.184639
1448090686100	-0.20458984375	9.886505126953125	2.0181884765625	-6.386058557513792	0	-9.239197	-25.979614	-26.039124	24.049805	-78.481346	-1.1877234
1448090686141	-0.193878173828125	9.876983642578125	1.988433837890625	-6.390236537685045	0	-9.239197	-25.91858	-25.85907	24.055603	-78.48467	-1.1937208
1448090686181	-0.198638916015625	9.884124755859375	2.000335693359375	-6.388146909316565	0	-9.359741	-26.098633	-25.979614	24.050781	-78.487305	-1.1912221
1448090686221	-0.201019287109375	9.869842529296875	2.031280517578125	-6.386058557513792	0	-9.539795	-26.45874	-25.85907	24.051819	-78.48493	-1.1909328
1448090686262	-0.198638916015625	9.886505126953125	2.009857177734375	-6.386406527596446	0	-9.599304	-26.339722	-25.85907	24.057404	-78.47795	-1.1920146
1448090686302	-0.193878173828125	9.88055419921875	2.050323486328125	-6.383102239804661	0	-9.47876	-26.399231	-26.098633	24.062775	-78.47294	-1.1938148
1448090686342	-0.20220947265625	9.874603271484375	2.01104736328125	-6.388495091997704	0	-9.599304	-26.399231	-25.738525	24.062927	-78.471466	-1.1932682
1448090686383	-0.20697021484375	9.9019775390625	2.021759033203125	-6.383623757397391	0	-9.47876	-26.039124	-25.91858	24.06607	-78.46491	-1.1926405
1448090686423	-0.203399658203125	9.9019775390625	2.013427734375	-6.384319237813125	0	-9.239197	-26.339722	-26.039124	24.066132	-78.46707	-1.193696
1448090686463	-0.196258544921875	9.874603271484375	2.016998291015625	-6.3867545330851385	0	-9.239197	-26.098633	-25.91858	24.065216	-78.46547	-1.1922503
1448090686503	-0.2093505859375	9.8829345703125	2.0467529296875	-6.383102239804661	0	-9.1796875	-25.91858	-26.098633	24.068085	-78.467064	-1.1951998
1448090686544	-0.19268798828125	9.86151123046875	2.045562744140625	-6.383971479939997	0	-9.1796875	-26.339722	-25.979614	24.066223	-78.464294	-1.1924843
1448090686584	-0.20458984375	9.8734130859375	1.997955322265625	-6.3909333645607145	0	-9.539795	-26.219177	-25.79956	24.068024	-78.459045	-1.1914263
1448090686624	-0.1998291015625	9.867462158203125	2.019378662109375	-6.387972831274226	0	-9.4192505	-26.45874	-25.91858	24.068878	-78.4558	-1.1905868
1448090686664	-0.196258544921875	9.876983642578125	2.01580810546875	-6.386580525914362	0	-9.539795	-26.45874	-25.91858	24.06195	-78.46637	-1.1901453
1448090686705	-0.201019287109375	9.881744384765625	2.00628662109375	-6.387972831274226	0	-9.239197	-26.579285	-26.098633	24.067657	-78.46187	-1.1924697
1448090686745	-0.191497802734375	9.8876953125	1.967010498046875	-6.391456078023577	0	-9.1796875	-26.638794	-26.219177	24.06192	-78.46646	-1.1901743
1448090686785	-0.20458984375	9.879364013671875	2.021759033203125	-6.386580525914362	0	-9.059143	-26.399231	-26.039124	24.059204	-78.47368	-1.1914091
1448090686825	-0.186737060546875	9.905548095703125	2.000335693359375	-6.38327607017454	0	-8.999634	-26.45874	-25.91858	24.0531	-78.47872	-1.1890522
1448090686866	-0.1903076171875	9.8829345703125	2.028900146484375	-6.382928418260686	0	-9.298706	-26.159668	-25.85907	24.047668	-78.47311	-1.1822624
1448090686906	-0.195068359375	9.869842529296875	2.013427734375	-6.387798762095567	0	-9.1796875	-26.098633	-26.039124	24.044678	-78.47366	-1.1802385
1448090686946	-0.21173095703125	9.869842529296875	2.033660888671875	-6.387276607728145	0	-9.239197	-26.45874	-26.278687	24.042786	-78.47686	-1.1802421
1448090686987	-0.2093505859375	9.872222900390625	2.000335693359375	-6.391456078023577	0	-9.1796875	-26.759338	-26.519775	24.043365	-78.47707	-1.1808004
1448090687027	-0.18792724609375	9.86865234375	2.0181884765625	-6.38623253813004	0	-9.239197	-26.45874	-26.45874	24.044708	-78.47851	-1.182486
1448090687067	-0.193878173828125	9.884124755859375	2.01580810546875	-6.385188787137681	0	-9.239197	-26.579285	-26.399231	24.042572	-78.48204	-1.1824734
1448090687107	-0.2188720703125	9.900787353515625	1.99200439453125	-6.38988817754052	0	-9.118652	-26.638794	-26.339722	24.042328	-78.477844	-1.1803488
1448090687148	-0.20458984375	9.8876953125	2.019378662109375	-6.385710622826371	0	-9.4192505	-26.278687	-26.399231	24.040405	-78.48691	-1.1830642
1448090687188	-0.20458984375	9.881744384765625	2.012237548828125	-6.387624701779237	0	-9.658813	-26.519775	-26.159668	24.043304	-78.4846	-1.184223
1448090687229	-0.18316650390625	9.884124755859375	2.013427734375	-6.383971479939997	0	-9.658813	-26.45874	-25.979614	24.036194	-78.48624	-1.1795118
1448090687269	-0.189117431640625	9.8734130859375	2.032470703125	-6.383623757397391	0	-9.599304	-25.979614	-25.85907	24.03241	-78.48534	-1.1761763
1448090687309	-0.20697021484375	9.88055419921875	2.02294921875	-6.386580525914362	0	-9.1796875	-25.979614	-25.85907	24.032501	-78.48191	-1.1746751
1448090687349	-0.177215576171875	9.8734130859375	2.032470703125	-6.38188567426557	0	-8.879089	-25.91858	-26.098633	24.034332	-78.48543	-1.1777091
1448090687390	-0.20220947265625	9.87579345703125	2.0372314453125	-6.384493130002001	0	-8.938599	-25.91858	-26.159668	24.03653	-78.47731	-1.1756451
1448090687430	-0.186737060546875	9.874603271484375	2.024139404296875	-6.384319237813125	0	-9.359741	-25.85907	-26.399231	24.042938	-78.468285	-1.1764085
1448090687470	-0.198638916015625	9.884124755859375	1.98724365234375	-6.390062353172805	0	-9.539795	-25.979614	-26.098633	24.040955	-78.4754	-1.1781831
1448090687511	-0.20220947265625	9.88055419921875	1.990814208984375	-6.39058493335482	0	-9.599304	-26.339722	-26.159668	24.035278	-78.48554	-1.1784786
1448090687551	-0.186737060546875	9.893646240234375	2.052703857421875	-6.37737078090289	0	-9.4192505	-26.219177	-26.098633	24.035492	-78.48045	-1.1762975
1448090687591	-0.198638916015625	9.8829345703125	2.019378662109375	-6.385536668752499	0	-9.359741	-26.399231	-26.039124	24.039368	-78.474525	-1.1765512
1448090687632	-0.203399658203125	9.85675048828125	2.02056884765625	-6.38988817754052	0	-9.298706	-26.159668	-26.219177	24.036957	-78.47588	-1.1753232
1448090687672	-0.18792724609375	9.872222900390625	2.009857177734375	-6.386928549110126	0	-8.938599	-25.979614	-26.159668	24.041931	-78.46987	-1.1763718
1448090687712	-0.186737060546875	9.88531494140625	2.00390625	-6.385710622826371	0	-8.999634	-26.399231	-26.098633	24.03775	-78.47377	-1.1749492
1448090687752	-0.186737060546875	9.872222900390625	2.005096435546875	-6.387450650323881	0	-9.059143	-26.45874	-26.039124	24.03366	-78.47638	-1.1730149
1448090687793	-0.208160400390625	9.897216796875	2.0372314453125	-6.382233220316948	0	-9.118652	-26.579285	-25.91858	24.03537	-78.47336	-1.172921
1448090687833	-0.184356689453125	9.865081787109375	2.01104736328125	-6.387276607728145	0	-9.539795	-26.399231	-25.979614	24.035553	-78.47662	-1.1745691
1448090687873	-0.20220947265625	9.88531494140625	2.00628662109375	-6.387624701779237	0	-9.4192505	-26.219177	-25.979614	24.028992	-78.484665	-1.1732455
1448090687914	-0.203399658203125	9.87579345703125	2.02532958984375	-6.386406527596446	0	-9.239197	-26.219177	-25.979614	24.034546	-78.485725	-1.1779978
1448090687954	-0.191497802734375	9.888885498046875	2.02056884765625	-6.383449909371668	0	-9.239197	-26.278687	-26.098633	24.036987	-78.48075	-1.1775862
1448090687994	-0.201019287109375	9.872222900390625	2.014617919921875	-6.388146909316565	0	-9.239197	-26.339722	-26.159668	24.036682	-78.48524	-1.1794239
1448090688034	-0.189117431640625	9.886505126953125	2.012237548828125	-6.384667031027547	0	-9.359741	-26.098633	-26.098633	24.042664	-78.48123	-1.1821728
1448090688075	-0.201019287109375	9.888885498046875	2.02294921875	-6.384493130002001	0	-9.239197	-25.85907	-26.219177	24.045074	-78.47673	-1.1819499
1448090688116	-0.19268798828125	9.87579345703125	2.0467529296875	-6.381711914465306	0	-9.239197	-25.738525	-26.159668	24.04779	-78.47276	-1.1821976
1448090688157	-0.195068359375	9.886505126953125	1.99676513671875	-6.387798762095567	0	-9.118652	-25.79956	-26.098633	24.04654	-78.47212	-1.1809567
1448090688197	-0.198638916015625	9.903167724609375	2.01580810546875	-6.383102239804661	0	-9.359741	-25.79956	-25.91858	24.04309	-78.47411	-1.1792309
1448090688237	-0.198638916015625	9.865081787109375	2.009857177734375	-6.3895398529103815	0	-9.359741	-26.098633	-25.85907	24.044342	-78.47559	-1.1808516
1448090688277	-0.195068359375	9.90673828125	2.033660888671875	-6.379453838753463	0	-9.1796875	-26.098633	-25.738525	24.044556	-78.47618	-1.1813025
1448090688318	-0.20220947265625	9.87103271484375	2.03009033203125	-6.38623253813004	0	-9.1796875	-25.85907	-25.91858	24.044373	-78.478745	-1.1823503
1448090688358	-0.203399658203125	9.878173828125	2.00390625	-6.389191563783767	0	-9.118652	-25.79956	-26.039124	24.048462	-78.47652	-1.1844733
1448090688398	-0.20458984375	9.88055419921875	2.02056884765625	-6.386580525914362	0	-9.4192505	-25.85907	-26.278687	24.059937	-78.46861	-1.1896491
1448090688439	-0.19744873046875	9.874603271484375	2.000335693359375	-6.389365703909812	0	-9.838867	-25.559998	-26.219177	24.058838	-78.474846	-1.191662
1448090688479	-0.21649169921875	9.878173828125	2.0086669921875	-6.390410731078596	0	-9.838867	-25.979614	-25.85907	24.05545	-78.47672	-1.1899284
1448090688519	-0.210540771484375	9.857940673828125	2.009857177734375	-6.392327444963111	0	-9.838867	-26.159668	-26.039124	24.065796	-78.471275	-1.195386
1448090688559	-0.203399658203125	9.88531494140625	2.00152587890625	-6.388495091997704	0	-9.719849	-26.159668	-26.278687	24.066864	-78.47338	-1.1971682
1448090688600	-0.19744873046875	9.891265869140625	2.01580810546875	-6.384667031027547	0	-9.599304	-26.159668	-26.098633	24.065521	-78.470825	-1.1949488
1448090688640	-0.176025390625	9.89007568359375	2.00152587890625	-6.394419633501824	0	-9.838867	-26.339722	-26.039124	24.06311	-78.478226	-1.196526
1448090688680	-0.20697021484375	9.87103271484375	2.0562744140625	-6.383102239804661	0	-9.899902	-26.219177	-25.979614	24.058777	-78.47866	-1.193398
1448090688721	-0.177215576171875	9.879364013671875	2.03485107421875	-6.380669540735138	0	-10.319519	-25.979614	-25.738525	24.062927	-78.46724	-1.1913084
1448090688761	-0.198638916015625	9.879364013671875	2.005096435546875	-6.388146909316565	0	-10.198975	-25.979614	-25.559998	24.055847	-78.466156	-1.185363
1448090688802	-0.19744873046875	9.876983642578125	2.038421630859375	-6.383449909371668	0	-10.139465	-26.159668	-25.679016	24.057434	-78.463356	-1.185276
1448090688842	-0.20220947265625	9.88531494140625	2.00628662109375	-6.387624701779237	0	-9.959412	-26.278687	-25.738525	24.055878	-78.46244	-1.1836483
1448090688882	-0.198638916015625	9.88531494140625	2.00628662109375	-6.387102573990678	0	-9.4192505	-26.759338	-25.738525	24.058105	-78.46176	-1.1850668
1448090688923	-0.186737060546875	9.88055419921875	1.994384765625	-6.387798762095567	0	-9.298706	-26.998901	-26.278687	24.050507	-78.46907	-1.1825904
1448090688963	-0.205780029296875	9.881744384765625	1.990814208984375	-6.3909333645607145	0	-9.298706	-26.759338	-26.219177	24.050964	-78.47696	-1.1865783
1448090689004	-0.20220947265625	9.881744384765625	2.012237548828125	-6.387276607728145	0	-9.539795	-26.69983	-26.098633	24.04837	-78.48083	-1.1863854
1448090689044	-0.196258544921875	9.88531494140625	2.021759033203125	-6.384493130002001	0	-9.838867	-26.159668	-26.039124	24.049194	-78.47918	-1.186247
1448090689084	-0.203399658203125	9.8638916015625	2.007476806640625	-6.390759144515073	0	-9.838867	-25.91858	-25.85907	24.049072	-78.47967	-1.1863897
1448090689125	-0.185546875	9.8876953125	2.033660888671875	-6.380843247664558	0	-9.719849	-26.219177	-25.738525	24.050629	-78.475395	-1.1856099
1448090689165	-0.205780029296875	9.879364013671875	2.02294921875	-6.386580525914362	0	-9.658813	-26.399231	-25.559998	24.049377	-78.47676	-1.1852769
1448090689205	-0.198638916015625	9.898406982421875	1.986053466796875	-6.388146909316565	0	-9.359741	-26.579285	-25.559998	24.043762	-78.486626	-1.1855134
1448090689245	-0.181976318359375	9.862701416015625	2.000335693359375	-6.3888433101498245	0	-9.239197	-26.638794	-25.679016	24.04309	-78.48236	-1.1830199
1448090689285	-0.2093505859375	9.87579345703125	2.0086669921875	-6.3897140107868315	0	-9.1796875	-26.098633	-25.738525	24.041534	-78.48369	-1.1824443
1448090689326	-0.203399658203125	9.900787353515625	1.986053466796875	-6.388495091997704	0	-9.059143	-26.039124	-26.039124	24.039429	-78.490425	-1.1839293
1448090689366	-0.201019287109375	9.8876953125	2.03485107421875	-6.382928418260686	0	-9.1796875	-25.738525	-26.159668	24.04773	-78.48018	-1.1855835
1448090689407	-0.2093505859375	9.884124755859375	1.986053466796875	-6.3918045981173695	0	-9.658813	-25.619507	-25.979614	24.044128	-78.4888	-1.1867918
1448090689447	-0.177215576171875	9.879364013671875	2.04437255859375	-6.379280202243486	0	-9.779358	-25.979614	-26.219177	24.04184	-78.49075	-1.1859438
1448090689487	-0.201019287109375	9.878173828125	2.01104736328125	-6.387798762095567	0	-9.959412	-25.91858	-25.91858	24.042847	-78.49409	-1.1882546
1448090689527	-0.208160400390625	9.884124755859375	2.013427734375	-6.387624701779237	0	-9.719849	-26.339722	-25.79956	24.045166	-78.49412	-1.1900522
1448090689568	-0.191497802734375	9.87103271484375	2.019378662109375	-6.38623253813004	0	-9.658813	-26.519775	-25.85907	24.041199	-78.49454	-1.1871898
1448090689608	-0.196258544921875	9.869842529296875	2.026519775390625	-6.387450650323881	0	-9.658813	-26.579285	-25.979614	24.043518	-78.48475	-1.1844614
1448090689648	-0.1807861328125	9.89483642578125	2.040802001953125	-6.378064992898297	0	-9.599304	-26.638794	-26.339722	24.042175	-78.47821	-1.1803906
1448090689689	-0.1903076171875	9.88055419921875	2.03485107421875	-6.382407006570745	0	-9.899902	-26.399231	-26.579285	24.047974	-78.47118	-1.1816229
1448090689729	-0.203399658203125	9.874603271484375	2.014617919921875	-6.388146909316565	0	-9.959412	-26.45874	-26.818848	24.051636	-78.467964	-1.1829481
1448090689770	-0.1998291015625	9.872222900390625	2.028900146484375	-6.385884585746353	0	-10.139465	-26.339722	-26.638794	24.05542	-78.46443	-1.1842232
1448090689810	-0.19744873046875	9.88055419921875	1.988433837890625	-6.390236537685045	0	-9.959412	-25.979614	-26.159668	24.052826	-78.47252	-1.1859627
1448090689851	-0.203399658203125	9.886505126953125	2.007476806640625	-6.387450650323881	0	-9.4192505	-26.039124	-26.098633	24.051147	-78.46845	-1.1827953
1448090689892	-0.20458984375	9.8924560546875	2.016998291015625	-6.385362723523384	0	-9.059143	-25.738525	-25.619507	24.051971	-78.46739	-1.1829438
1448090689932	-0.19744873046875	9.88531494140625	2.002716064453125	-6.387450650323881	0	-8.81958	-25.979614	-25.559998	24.048737	-78.472626	-1.1828798
1448090689972	-0.201019287109375	9.862701416015625	1.99200439453125	-6.392850371887606	0	-8.938599	-25.85907	-25.79956	24.043457	-78.479645	-1.1820472
1448090690012	-0.20697021484375	9.8924560546875	1.9991455078125	-6.38832099622394	0	-9.47876	-26.039124	-25.679016	24.046173	-78.48764	-1.1878276
1448090690053	-0.208160400390625	9.893646240234375	2.009857177734375	-6.3867545330851385	0	-9.599304	-26.519775	-26.039124	24.043152	-78.49352	-1.1882342
1448090690093	-0.205780029296875	9.874603271484375	2.01104736328125	-6.38901743253089	0	-9.899902	-26.399231	-26.039124	24.043823	-78.49325	-1.1886193
1448090690133	-0.208160400390625	9.86865234375	2.014617919921875	-6.3897140107868315	0	-9.779358	-26.519775	-25.979614	24.048065	-78.489296	-1.1900607
1448090690173	-0.19744873046875	9.881744384765625	1.98724365234375	-6.390236537685045	0	-9.239197	-26.339722	-25.979614	24.043854	-78.49228	-1.1882008
1448090690214	-0.18316650390625	9.860321044921875	2.02056884765625	-6.386406527596446	0	-9.359741	-26.159668	-25.85907	24.043121	-78.48688	-1.1851411
1448090690254	-0.186737060546875	9.869842529296875	2.038421630859375	-6.382928418260686	0	-9.239197	-26.399231	-25.79956	24.041199	-78.48942	-1.1848354
1448090690294	-0.20458984375	9.8734130859375	2.00152587890625	-6.390410731078596	0	-9.359741	-26.339722	-25.85907	24.041565	-78.4869	-1.1839447
1448090690334	-0.185546875	9.88055419921875	2.013427734375	-6.38484094089111	0	-9.779358	-26.219177	-25.738525	24.039948	-78.48468	-1.1816714
1448090690375	-0.214111328125	9.898406982421875	2.03485107421875	-6.38327607017454	0	-9.838867	-26.098633	-25.738525	24.04303	-78.47726	-1.1806246
1448090690415	-0.2093505859375	9.88055419921875	2.021759033203125	-6.387102573990678	0	-9.539795	-26.45874	-25.559998	24.04718	-78.47233	-1.1815503
1448090690455	-0.181976318359375	9.8829345703125	2.00152587890625	-6.385710622826371	0	-9.4192505	-26.818848	-25.559998	24.048615	-78.46755	-1.1804315
1448090690495	-0.186737060546875	9.89959716796875	1.962249755859375	-6.3897140107868315	0	-9.599304	-26.759338	-25.619507	24.032867	-78.48191	-1.1749423
1448090690536	-0.191497802734375	9.87103271484375	2.033660888671875	-6.384145354459573	0	-9.599304	-26.879883	-25.439453	24.036743	-78.481	-1.177517
1448090690576	-0.179595947265625	9.8829345703125	2.007476806640625	-6.384493130002001	0	-9.719849	-26.399231	-25.738525	24.037445	-78.48403	-1.179441
1448090690616	-0.2236328125	9.874603271484375	2.05389404296875	-6.385362723523384	0	-9.599304	-26.039124	-25.979614	24.053375	-78.4712	-1.1857927
1448090690656	-0.19744873046875	9.8734130859375	2.03961181640625	-6.3837976142530515	0	-9.539795	-26.399231	-25.79956	24.052399	-78.471634	-1.1852411
1448090690697	-0.208160400390625	9.88055419921875	2.01580810546875	-6.387798762095567	0	-9.658813	-26.098633	-25.979614	24.056213	-78.46673	-1.1859071
1448090690737	-0.179595947265625	9.88531494140625	1.98486328125	-6.3912818313136075	0	-9.719849	-26.219177	-26.039124	24.05603	-78.47153	-1.1879865
1448090690777	-0.203399658203125	9.88531494140625	1.995574951171875	-6.389365703909812	0	-9.959412	-26.219177	-25.738525	24.043976	-78.47734	-1.1813864
1448090690817	-0.189117431640625	9.89007568359375	2.019378662109375	-6.383102239804661	0	-9.658813	-26.219177	-26.159668	24.047058	-78.47553	-1.1829208
1448090690858	-0.19744873046875	9.886505126953125	1.993194580078125	-6.388669196639215	0	-9.599304	-26.45874	-25.979614	24.041199	-78.48055	-1.1811163
1448090690898	-0.20220947265625	9.89007568359375	1.9801025390625	-6.390759144515073	0	-9.658813	-26.278687	-25.79956	24.03833	-78.486435	-1.1812359
1448090690938	-0.205780029296875	9.88055419921875	1.986053466796875	-6.3918045981173695	0	-9.658813	-26.219177	-25.91858	24.038452	-78.4887	-1.1823896
1448090690978	-0.19744873046875	9.88055419921875	2.00152587890625	-6.38832099622394	0	-9.4192505	-26.098633	-26.039124	24.038269	-78.49058	-1.1823896
1448090691019	-0.19744873046875	9.89007568359375	2.009857177734375	-6.385710622826371	0	-9.298706	-26.098633	-25.979614	24.045044	-78.485535	-1.1859882
1448090691059	-0.193878173828125	9.87103271484375	2.021759033203125	-6.38623253813004	0	-9.239197	-26.098633	-25.979614	24.044006	-78.484535	-1.1847321
1448090691100	-0.193878173828125	9.872222900390625	1.981292724609375	-6.391978871503914	0	-9.1796875	-26.039124	-25.979614	24.038605	-78.49056	-1.1833639
1448090691140	-0.210540771484375	9.859130859375	2.026519775390625	-6.3897140107868315	0	-9.298706	-25.979614	-25.85907	24.04544	-78.48498	-1.1860548
1448090691180	-0.191497802734375	9.8924560546875	1.99200439453125	-6.387102573990678	0	-9.359741	-26.039124	-25.85907	24.037048	-78.49453	-1.1840036
1448090691221	-0.195068359375	9.87579345703125	2.04437255859375	-6.382407006570745	0	-9.239197	-26.219177	-26.039124	24.036499	-78.489525	-1.1812539
1448090691261	-0.184356689453125	9.881744384765625	2.01580810546875	-6.384145354459573	0	-9.359741	-26.519775	-25.979614	24.034302	-78.48817	-1.178949
1448090691301	-0.201019287109375	9.87579345703125	1.97296142578125	-6.393722094814535	0	-9.539795	-26.579285	-26.098633	24.029388	-78.496	-1.1787834
1448090691341	-0.2093505859375	9.888885498046875	2.009857177734375	-6.387624701779237	0	-9.539795	-26.45874	-26.219177	24.028961	-78.493355	-1.1772336
1448090691382	-0.196258544921875	9.87579345703125	2.031280517578125	-6.384493130002001	0	-9.658813	-26.339722	-26.098633	24.029388	-78.49074	-1.1763334
1448090691422	-0.220062255859375	9.89483642578125	1.995574951171875	-6.390410731078596	0	-9.4192505	-26.098633	-26.278687	24.034607	-78.48841	-1.1792847
1448090691462	-0.205780029296875	9.8876953125	2.00152587890625	-6.388495091997704	0	-9.298706	-26.098633	-26.219177	24.03415	-78.49056	-1.1799302
1448090691503	-0.203399658203125	9.8638916015625	2.031280517578125	-6.387276607728145	0	-9.47876	-26.159668	-26.278687	24.039764	-78.48568	-1.1819925
1448090691543	-0.205780029296875	9.881744384765625	2.0181884765625	-6.386928549110126	0	-9.239197	-26.098633	-26.219177	24.04486	-78.48405	-1.1851693
1448090691583	-0.191497802734375	9.874603271484375	2.00628662109375	-6.387624701779237	0	-9.47876	-26.519775	-26.039124	24.04535	-78.483955	-1.1855109
1448090691624	-0.20458984375	9.878173828125	2.016998291015625	-6.387450650323881	0	-9.47876	-26.45874	-25.79956	24.047058	-78.48049	-1.1852094
1448090691664	-0.2188720703125	9.86627197265625	2.0467529296875	-6.386928549110126	0	-9.4192505	-26.339722	-25.738525	24.058502	-78.47236	-1.1902564
1448090691704	-0.21173095703125	9.86865234375	2.00628662109375	-6.391456078023577	0	-9.599304	-26.339722	-25.79956	24.058075	-78.47202	-1.189784
1448090691744	-0.19268798828125	9.886505126953125	1.997955322265625	-6.387276607728145	0	-9.359741	-26.039124	-25.85907	24.052216	-78.472374	-1.1854442
1448090691785	-0.1903076171875	9.862701416015625	1.96820068359375	-6.394768456324099	0	-9.1796875	-26.159668	-25.979614	24.042053	-78.48419	-1.1830659
1448090691825	-0.191497802734375	9.89007568359375	2.03961181640625	-6.380495842612833	0	-9.118652	-25.979614	-26.278687	24.04242	-78.48358	-1.1830745
1448090691865	-0.2093505859375	9.88055419921875	2.038421630859375	-6.384667031027547	0	-9.239197	-26.159668	-26.399231	24.049988	-78.473076	-1.1840489
1448090691905	-0.189117431640625	9.893646240234375	1.993194580078125	-6.386406527596446	0	-9.47876	-26.219177	-26.519775	24.04599	-78.47709	-1.1828345
1448090691946	-0.196258544921875	9.884124755859375	2.01580810546875	-6.385536668752499	0	-9.539795	-25.979614	-26.69983	24.042236	-78.47983	-1.1811916
1448090691986	-0.217681884765625	9.88531494140625	2.021759033203125	-6.387624701779237	0	-9.779358	-26.579285	-26.159668	24.042786	-78.486115	-1.1845322
1448090692026	-0.184356689453125	9.898406982421875	2.021759033203125	-6.380843247664558	0	-9.719849	-26.399231	-26.039124	24.04004	-78.485596	-1.1821642
1448090692067	-0.20697021484375	9.87579345703125	2.026519775390625	-6.3867545330851385	0	-9.599304	-26.159668	-25.91858	24.044983	-78.48389	-1.1851813
1448090692107	-0.186737060546875	9.896026611328125	2.04437255859375	-6.378238567861462	0	-9.539795	-26.339722	-26.039124	24.036957	-78.487335	-1.1806144
1448090692147	-0.19744873046875	9.886505126953125	2.032470703125	-6.382928418260686	0	-9.658813	-26.039124	-26.098633	24.041412	-78.483116	-1.1820848
1448090692187	-0.19268798828125	9.86627197265625	2.031280517578125	-6.385362723523384	0	-9.658813	-26.159668	-25.979614	24.046967	-78.471245	-1.1808679
1448090692228	-0.208160400390625	9.896026611328125	2.0277099609375	-6.3837976142530515	0	-9.719849	-26.098633	-26.039124	24.05252	-78.46759	-1.1834699
1448090692268	-0.19744873046875	9.893646240234375	2.012237548828125	-6.38484094089111	0	-9.719849	-26.159668	-26.159668	24.053955	-78.4682	-1.1848336
1448090692308	-0.23553466796875	9.87103271484375	2.033660888671875	-6.39058493335482	0	-9.779358	-26.098633	-25.79956	24.067139	-78.471016	-1.1963049
1448090692348	-0.1998291015625	9.88055419921875	2.02294921875	-6.385536668752499	0	-9.719849	-26.339722	-26.219177	24.06659	-78.469315	-1.1950948
1448090692389	-0.2093505859375	9.86865234375	1.9896240234375	-6.393547732417506	0	-9.658813	-26.45874	-25.91858	24.06717	-78.47371	-1.1975696
1448090692429	-0.177215576171875	9.888885498046875	1.99676513671875	-6.38484094089111	0	-9.359741	-26.339722	-25.679016	24.058441	-78.477875	-1.1927763
1448090692469	-0.18316650390625	9.884124755859375	2.012237548828125	-6.384145354459573	0	-9.239197	-26.278687	-25.498962	24.048676	-78.478455	-1.1855117
1448090692509	-0.20220947265625	9.87579345703125	2.016998291015625	-6.387450650323881	0	-9.599304	-26.039124	-25.19989	24.039764	-78.48122	-1.179932
1448090692550	-0.214111328125	9.86865234375	1.995574951171875	-6.393373378927664	0	-9.779358	-25.979614	-25.318909	24.045258	-78.47917	-1.1832112
1448090692590	-0.224822998046875	9.898406982421875	2.01104736328125	-6.38832099622394	0	-9.779358	-26.278687	-25.439453	24.053467	-78.47655	-1.188316
1448090692630	-0.1998291015625	9.89959716796875	2.03009033203125	-6.381711914465306	0	-9.838867	-26.579285	-25.559998	24.054962	-78.47367	-1.188159
1448090692670	-0.18792724609375	9.87579345703125	2.0086669921875	-6.386580525914362	0	-9.719849	-26.69983	-25.679016	24.053467	-78.46768	-1.1842239
1448090692711	-0.203399658203125	9.865081787109375	2.007476806640625	-6.39058493335482	0	-9.298706	-26.939392	-25.79956	24.05014	-78.47358	-1.184382
1448090692752	-0.20220947265625	9.876983642578125	2.031280517578125	-6.385188787137681	0	-9.1796875	-26.69983	-26.098633	24.049164	-78.47045	-1.182206
1448090692792	-0.20220947265625	9.878173828125	1.98724365234375	-6.391456078023577	0	-9.1796875	-26.45874	-26.399231	24.049194	-78.4673	-1.1807773
1448090692833	-0.186737060546875	9.87579345703125	2.016998291015625	-6.385188787137681	0	-8.938599	-26.339722	-26.219177	24.044037	-78.47065	-1.1783513
1448090692873	-0.179595947265625	9.88531494140625	2.021759033203125	-6.382059442882337	0	-9.239197	-26.339722	-26.159668	24.036682	-78.47144	-1.1730577
1448090692913	-0.214111328125	9.874603271484375	2.031280517578125	-6.387276607728145	0	-9.239197	-26.399231	-26.039124	24.05072	-78.45913	-1.1781728
1448090692953	-0.191497802734375	9.881744384765625	2.013427734375	-6.385536668752499	0	-9.298706	-26.339722	-26.278687	24.045898	-78.45912	-1.1744454
1448090692994	-0.2188720703125	9.884124755859375	2.02532958984375	-6.387450650323881	0	-9.539795	-26.339722	-26.579285	24.04535	-78.46518	-1.176821
1448090693034	-0.208160400390625	9.862701416015625	2.00628662109375	-6.3918045981173695	0	-9.359741	-26.159668	-26.45874	24.052582	-78.4653	-1.182447
1448090693076	-0.1903076171875	9.869842529296875	2.021759033203125	-6.385884585746353	0	-9.959412	-26.098633	-26.45874	24.05426	-78.45678	-1.1798022
1448090693116	-0.198638916015625	9.876983642578125	2.0181884765625	-6.386580525914362	0	-10.018921	-26.159668	-26.339722	24.055542	-78.455765	-1.1803274
1448090693156	-0.189117431640625	9.878173828125	2.05865478515625	-6.379106574529919	0	-9.539795	-26.278687	-26.339722	24.06131	-78.45124	-1.1826706
1448090693196	-0.20697021484375	9.869842529296875	2.02532958984375	-6.387798762095567	0	-9.47876	-26.399231	-26.399231	24.05426	-78.45746	-1.1801045
1448090693237	-0.198638916015625	9.86627197265625	1.997955322265625	-6.391107593493106	0	-9.4192505	-26.098633	-26.159668	24.054993	-78.457466	-1.1806724
1448090693277	-0.17364501953125	9.87103271484375	2.026519775390625	-6.382580801645071	0	-9.4192505	-26.45874	-25.738525	24.046417	-78.456825	-1.1738065
1448090693317	-0.20458984375	9.86151123046875	2.026519775390625	-6.388495091997704	0	-9.658813	-26.339722	-25.559998	24.050507	-78.447655	-1.1727109
1448090693357	-0.195068359375	9.865081787109375	2.0277099609375	-6.386406527596446	0	-9.779358	-26.45874	-25.738525	24.053864	-78.447495	-1.1752113
1448090693398	-0.195068359375	9.89483642578125	1.9896240234375	-6.387624701779237	0	-9.899902	-26.45874	-26.039124	24.06012	-78.439674	-1.1764026
1448090693438	-0.201019287109375	9.92340087890625	2.00152587890625	-6.382580801645071	0	-9.779358	-26.278687	-26.219177	24.049683	-78.45445	-1.1752019
1448090693478	-0.210540771484375	9.8829345703125	2.04437255859375	-6.383623757397391	0	-10.018921	-26.039124	-26.039124	24.056885	-78.45227	-1.1791438
1448090693518	-0.203399658203125	9.8638916015625	2.0086669921875	-6.39058493335482	0	-9.959412	-25.979614	-25.91858	24.062164	-78.44591	-1.1808525
1448090693559	-0.19744873046875	9.874603271484375	2.019378662109375	-6.386580525914362	0	-9.599304	-26.278687	-25.85907	24.062256	-78.44437	-1.1802206
1448090693599	-0.20458984375	9.88531494140625	1.975341796875	-6.392501745038486	0	-9.4192505	-26.278687	-25.85907	24.058228	-78.451004	-1.1801736
1448090693639	-0.20220947265625	9.876983642578125	2.007476806640625	-6.388669196639215	0	-9.359741	-26.339722	-26.278687	24.058838	-78.447174	-1.178885
1448090693679	-0.205780029296875	9.855560302734375	2.01104736328125	-6.3918045981173695	0	-9.359741	-26.339722	-26.399231	24.066742	-78.44725	-1.1849908
1448090693720	-0.20220947265625	9.8829345703125	2.00628662109375	-6.387972831274226	0	-9.539795	-26.278687	-26.579285	24.060028	-78.45204	-1.1820395
1448090693760	-0.20458984375	9.879364013671875	2.019378662109375	-6.386928549110126	0	-9.539795	-26.278687	-26.399231	24.059845	-78.45175	-1.1817646
1448090693800	-0.193878173828125	9.878173828125	2.012237548828125	-6.386580525914362	0	-9.298706	-26.339722	-26.339722	24.058777	-78.450165	-1.1802181
1448090693841	-0.195068359375	9.88531494140625	1.98486328125	-6.3897140107868315	0	-9.239197	-26.278687	-26.039124	24.054352	-78.45222	-1.177769
1448090693881	-0.210540771484375	9.85675048828125	2.0562744140625	-6.385710622826371	0	-9.118652	-26.159668	-25.979614	24.059296	-78.446686	-1.179008
1448090693921	-0.184356689453125	9.87103271484375	2.03961181640625	-6.382233220316948	0	-8.999634	-26.45874	-26.159668	24.05539	-78.443634	-1.1745913
1448090693961	-0.1903076171875	9.8924560546875	1.995574951171875	-6.386406527596446	0	-9.239197	-26.45874	-26.098633	24.0578	-78.43849	-1.1740619
1448090694002	-0.217681884765625	9.878173828125	1.99676513671875	-6.392327444963111	0	-8.938599	-26.219177	-26.339722	24.056274	-78.44477	-1.1758057
1448090694042	-0.208160400390625	9.90673828125	2.032470703125	-6.381538163480201	0	-8.879089	-26.159668	-26.219177	24.060394	-78.44109	-1.1772634
1448090694082	-0.220062255859375	9.8543701171875	2.01580810546875	-6.393373378927664	0	-8.999634	-25.91858	-26.159668	24.064209	-78.43383	-1.1768347
1448090694122	-0.19268798828125	9.897216796875	1.995574951171875	-6.386058557513792	0	-8.639526	-25.979614	-25.979614	24.058289	-78.43464	-1.1726725
1448090694163	-0.20220947265625	9.88055419921875	2.03961181640625	-6.383449909371668	0	-9.118652	-26.219177	-25.79956	24.06186	-78.432724	-1.1745256
1448090694203	-0.20697021484375	9.867462158203125	1.986053466796875	-6.393896466120115	0	-9.1796875	-26.219177	-25.979614	24.062927	-78.43442	-1.1761276
1448090694243	-0.20220947265625	9.896026611328125	2.03961181640625	-6.381190687950106	0	-9.359741	-26.278687	-25.85907	24.066803	-78.42437	-1.1744504
1448090694283	-0.20697021484375	9.874603271484375	2.036041259765625	-6.385536668752499	0	-9.4192505	-26.039124	-26.219177	24.061737	-78.42643	-1.1715299
1448090694324	-0.185546875	9.862701416015625	2.0086669921875	-6.388146909316565	0	-9.298706	-25.979614	-26.159668	24.065521	-78.4197	-1.1713233
1448090694364	-0.20220947265625	9.898406982421875	2.00390625	-6.386058557513792	0	-9.359741	-25.979614	-26.039124	24.06372	-78.42411	-1.1719749
1448090694404	-0.19744873046875	9.8876953125	2.009857177734375	-6.386058557513792	0	-9.059143	-25.85907	-26.039124	24.066833	-78.420845	-1.1728587
1448090694444	-0.185546875	9.90435791015625	2.05389404296875	-6.375462422151364	0	-9.059143	-26.039124	-26.039124	24.068909	-78.4152	-1.1718339
1448090694484	-0.20458984375	9.867462158203125	2.005096435546875	-6.390759144515073	0	-8.879089	-26.159668	-26.039124	24.068115	-78.425064	-1.1757886
1448090694525	-0.214111328125	9.88531494140625	2.04913330078125	-6.383102239804661	0	-8.459473	-26.219177	-26.039124	24.072205	-78.42438	-1.1786177
1448090694565	-0.1903076171875	9.8876953125	2.00628662109375	-6.385536668752499	0	-8.459473	-26.519775	-26.159668	24.074188	-78.42325	-1.1796151
1448090694605	-0.2188720703125	9.90435791015625	2.012237548828125	-6.386406527596446	0	-8.699036	-26.69983	-25.738525	24.077667	-78.42126	-1.1813751
1448090694646	-0.19268798828125	9.878173828125	2.013427734375	-6.38623253813004	0	-8.879089	-26.519775	-25.619507	24.074646	-78.42263	-1.1796732
1448090694686	-0.19744873046875	9.893646240234375	2.0181884765625	-6.383971479939997	0	-9.239197	-26.69983	-25.559998	24.076385	-78.42128	-1.1803871
1448090694726	-0.20220947265625	9.879364013671875	2.047943115234375	-6.382407006570745	0	-9.1796875	-26.879883	-25.439453	24.076202	-78.422455	-1.1807986
1448090694767	-0.20220947265625	9.884124755859375	1.99200439453125	-6.38988817754052	0	-9.118652	-26.399231	-25.79956	24.077698	-78.42283	-1.1821113
1448090694807	-0.21173095703125	9.867462158203125	1.988433837890625	-6.394245235462394	0	-9.1796875	-26.399231	-26.219177	24.080414	-78.423004	-1.1842983
1448090694847	-0.20220947265625	9.888885498046875	2.033660888671875	-6.383102239804661	0	-9.359741	-26.399231	-26.519775	24.08899	-78.41745	-1.1883204
1448090694887	-0.191497802734375	9.8829345703125	2.028900146484375	-6.383102239804661	0	-9.779358	-26.098633	-26.638794	24.07956	-78.42547	-1.1847824
1448090694928	-0.19744873046875	9.874603271484375	2.0277099609375	-6.385362723523384	0	-9.779358	-26.219177	-26.278687	24.080627	-78.424355	-1.1850703
1448090694968	-0.19268798828125	9.8876953125	2.016998291015625	-6.384319237813125	0	-9.899902	-26.399231	-26.339722	24.078918	-78.4258	-1.1844323
1448090695008	-0.198638916015625	9.872222900390625	2.02532958984375	-6.387798762095567	0	-9.838867	-26.159668	-25.91858	24.08493	-78.42054	-1.1866125
1448090695048	-0.20697021484375	9.872222900390625	2.024139404296875	-6.387624701779237	0	-9.599304	-25.79956	-26.159668	24.084442	-78.419556	-1.1857969
1448090695089	-0.210540771484375	9.8876953125	2.06103515625	-6.380495842612833	0	-9.539795	-25.91858	-26.45874	24.089417	-78.41084	-1.1855689
1448090695129	-0.195068359375	9.879364013671875	2.021759033203125	-6.385188787137681	0	-9.298706	-25.979614	-26.278687	24.083405	-78.41237	-1.1816698
1448090695169	-0.21173095703125	9.867462158203125	1.99676513671875	-6.393024698664078	0	-9.359741	-25.91858	-26.519775	24.083282	-78.41715	-1.1837825
1448090695210	-0.20697021484375	9.8734130859375	2.032470703125	-6.38623253813004	0	-9.599304	-26.039124	-26.278687	24.089508	-78.41298	-1.1866432
1448090695250	-0.21173095703125	9.90435791015625	2.00628662109375	-6.38623253813004	0	-9.779358	-25.85907	-26.039124	24.094757	-78.413826	-1.1910762
1448090695291	-0.195068359375	9.876983642578125	2.013427734375	-6.3867545330851385	0	-9.719849	-25.738525	-26.098633	24.089844	-78.41648	-1.1885091
1448090695331	-0.18316650390625	9.8876953125	2.0277099609375	-6.3813644213089145	0	-9.658813	-25.91858	-26.039124	24.08722	-78.41686	-1.1866825
1448090695372	-0.22125244140625	9.878173828125	2.01104736328125	-6.390759144515073	0	-9.599304	-26.159668	-25.91858	24.090332	-78.41868	-1.1899155
1448090695412	-0.208160400390625	9.881744384765625	2.045562744140625	-6.38327607017454	0	-9.4192505	-26.219177	-25.738525	24.090332	-78.41727	-1.1892682
1448090695452	-0.1998291015625	9.88055419921875	2.024139404296875	-6.385362723523384	0	-9.658813	-26.098633	-25.79956	24.10437	-78.40176	-1.1928618
1448090695492	-0.2093505859375	9.891265869140625	2.002716064453125	-6.38832099622394	0	-9.4192505	-26.219177	-25.85907	24.099823	-78.41033	-1.1933408
1448090695533	-0.201019287109375	9.87579345703125	2.040802001953125	-6.3837976142530515	0	-9.118652	-26.159668	-25.85907	24.101105	-78.40796	-1.1932135
1448090695573	-0.19744873046875	9.878173828125	1.9991455078125	-6.38901743253089	0	-9.1796875	-26.159668	-26.098633	24.088684	-78.4154	-1.1871163
1448090695613	-0.185546875	9.88531494140625	2.019378662109375	-6.38327607017454	0	-9.059143	-26.039124	-26.098633	24.084595	-78.41703	-1.1847364
1448090695653	-0.203399658203125	9.886505126953125	2.009857177734375	-6.387102573990678	0	-9.059143	-26.219177	-26.159668	24.082	-78.418526	-1.1834289
1448090695694	-0.189117431640625	9.87103271484375	2.03961181640625	-6.382928418260686	0	-8.999634	-26.098633	-26.159668	24.08023	-78.41531	-1.1806015
1448090695734	-0.177215576171875	9.86865234375	1.99676513671875	-6.387798762095567	0	-9.059143	-26.339722	-26.339722	24.07077	-78.42009	-1.1755282
1448090695774	-0.186737060546875	9.888885498046875	2.028900146484375	-6.381538163480201	0	-8.938599	-26.278687	-26.219177	24.06781	-78.42232	-1.1742898
1448090695814	-0.19744873046875	9.888885498046875	2.021759033203125	-6.384145354459573	0	-9.118652	-26.159668	-25.979614	24.06662	-78.42695	-1.1755025
1448090695855	-0.1998291015625	9.891265869140625	2.013427734375	-6.385362723523384	0	-9.539795	-26.098633	-25.85907	24.062897	-78.430305	-1.174196
1448090695895	-0.20458984375	9.859130859375	2.021759033203125	-6.3895398529103815	0	-9.47876	-26.219177	-25.679016	24.067413	-78.42552	-1.1754718
1448090695935	-0.19268798828125	9.884124755859375	2.02056884765625	-6.384319237813125	0	-9.359741	-26.399231	-25.619507	24.065735	-78.42612	-1.1744641
1448090695976	-0.193878173828125	9.874603271484375	2.009857177734375	-6.387450650323881	0	-9.359741	-26.278687	-25.679016	24.065308	-78.42938	-1.1756196
1448090696016	-0.212921142578125	9.8924560546875	2.033660888671875	-6.384145354459573	0	-9.239197	-26.219177	-25.85907	24.068634	-78.427086	-1.1771362
1448090696056	-0.185546875	9.8734130859375	2.0181884765625	-6.385188787137681	0	-8.81958	-26.278687	-25.85907	24.059265	-78.42793	-1.1703105
1448090696096	-0.17364501953125	9.881744384765625	2.024139404296875	-6.3813644213089145	0	-9.298706	-26.45874	-25.91858	24.04831	-78.4279	-1.1618956
1448090696137	-0.18792724609375	9.8876953125	1.976531982421875	-6.3895398529103815	0	-9.4192505	-26.45874	-26.159668	24.04004	-78.437325	-1.1598871
1448090696177	-0.184356689453125	9.8876953125	2.01580810546875	-6.38327607017454	0	-9.359741	-26.579285	-26.159668	24.037994	-78.428246	-1.1583551
1448090696217	-0.201019287109375	9.8638916015625	2.032470703125	-6.3867545330851385	0	-9.539795	-26.399231	-26.45874	24.041077	-78.42493	-1.1549684
1448090696259	-0.19268798828125	9.8876953125	1.993194580078125	-6.387798762095567	0	-9.239197	-26.399231	-26.519775	24.039795	-78.42823	-1.1555065
1448090696299	-0.1903076171875	9.907928466796875	2.0277099609375	-6.379453838753463	0	-8.879089	-26.45874	-26.45874	24.037292	-78.43413	-1.1562886
1448090696339	-0.19268798828125	9.876983642578125	2.01104736328125	-6.3867545330851385	0	-8.81958	-26.45874	-26.579285	24.035248	-78.43465	-1.1549659
1448090696380	-0.193878173828125	9.87579345703125	2.043182373046875	-6.382407006570745	0	-8.879089	-26.219177	-26.339722	24.047638	-78.42936	-1.1620374
1448090696420	-0.203399658203125	9.87579345703125	1.993194580078125	-6.391107593493106	0	-8.81958	-25.979614	-26.519775	24.050812	-78.43832	-1.1686299
1448090696460	-0.214111328125	9.86151123046875	2.0372314453125	-6.38832099622394	0	-9.239197	-25.979614	-26.638794	24.05597	-78.43545	-1.1712447
1448090696501	-0.22125244140625	9.872222900390625	1.990814208984375	-6.39459404045527	0	-9.4192505	-25.91858	-26.879883	24.058014	-78.43136	-1.1709365
1448090696541	-0.201019287109375	9.8829345703125	2.026519775390625	-6.38484094089111	0	-9.4192505	-26.278687	-26.879883	24.060913	-78.435265	-1.1749713
1448090696581	-0.196258544921875	9.884124755859375	1.997955322265625	-6.388146909316565	0	-9.838867	-26.278687	-26.638794	24.05545	-78.438286	-1.1721729
1448090696622	-0.205780029296875	9.8829345703125	2.032470703125	-6.384667031027547	0	-9.4192505	-26.219177	-26.278687	24.057678	-78.437386	-1.173471
1448090696662	-0.1998291015625	9.89007568359375	2.016998291015625	-6.385014859594039	0	-9.1796875	-26.278687	-26.219177	24.060028	-78.43837	-1.1757185
1448090696702	-0.191497802734375	9.90673828125	2.0372314453125	-6.378412151613023	0	-9.4192505	-25.979614	-26.219177	24.056671	-78.442635	-1.1751096
1448090696742	-0.195068359375	9.89007568359375	2.009857177734375	-6.385362723523384	0	-9.239197	-26.159668	-26.278687	24.0513	-78.443855	-1.1715496
1448090696783	-0.189117431640625	9.88055419921875	1.9991455078125	-6.387450650323881	0	-9.1796875	-26.219177	-26.219177	24.047668	-78.44569	-1.1696103
1448090696823	-0.20220947265625	9.87103271484375	2.012237548828125	-6.3888433101498245	0	-9.4192505	-26.219177	-25.979614	24.042328	-78.45196	-1.168407
1448090696863	-0.20220947265625	9.87579345703125	2.005096435546875	-6.389191563783767	0	-9.1796875	-26.638794	-26.159668	24.037659	-78.45492	-1.1661791
1448090696903	-0.18316650390625	9.859130859375	2.016998291015625	-6.387102573990678	0	-9.359741	-26.638794	-26.219177	24.033325	-78.45362	-1.162256
1448090696944	-0.191497802734375	9.8876953125	2.00628662109375	-6.385710622826371	0	-9.599304	-26.399231	-25.979614	24.029755	-78.45386	-1.1596079
1448090696984	-0.198638916015625	9.86865234375	2.021759033203125	-6.387276607728145	0	-9.4192505	-26.219177	-26.219177	24.0307	-78.44484	-1.1561648
1448090697024	-0.214111328125	9.86865234375	2.02056884765625	-6.3897140107868315	0	-9.47876	-26.339722	-25.85907	24.034424	-78.44499	-1.1591015
1448090697064	-0.21173095703125	9.865081787109375	2.02056884765625	-6.38988817754052	0	-9.239197	-26.098633	-25.85907	24.03955	-78.443184	-1.1622133
1448090697105	-0.1998291015625	9.86627197265625	2.04437255859375	-6.384493130002001	0	-9.239197	-26.278687	-26.399231	24.042267	-78.43868	-1.1622262
1448090697145	-0.1903076171875	9.87579345703125	2.0086669921875	-6.386928549110126	0	-9.359741	-26.399231	-26.039124	24.039886	-78.444496	-1.1630791
1448090697185	-0.198638916015625	9.872222900390625	2.028900146484375	-6.385710622826371	0	-9.47876	-26.339722	-26.159668	24.043793	-78.44052	-1.1642424
1448090697226	-0.2093505859375	9.881744384765625	2.0181884765625	-6.387450650323881	0	-9.658813	-26.579285	-25.91858	24.04364	-78.44193	-1.1647879
1448090697266	-0.196258544921875	9.886505126953125	2.002716064453125	-6.387102573990678	0	-9.658813	-26.399231	-25.619507	24.04889	-78.43831	-1.1671406
1448090697307	-0.195068359375	9.88055419921875	1.997955322265625	-6.388495091997704	0	-9.658813	-26.399231	-25.979614	24.041138	-78.44533	-1.1644164
1448090697347	-0.20458984375	9.893646240234375	2.00152587890625	-6.387450650323881	0	-9.298706	-26.219177	-26.039124	24.042236	-78.43841	-1.1620792
1448090697387	-0.1903076171875	9.891265869140625	1.9991455078125	-6.386058557513792	0	-8.938599	-26.159668	-26.278687	24.035248	-78.445854	-1.1601408
1448090697427	-0.193878173828125	9.872222900390625	2.031280517578125	-6.384667031027547	0	-9.1796875	-26.159668	-26.339722	24.03299	-78.44176	-1.1565208
1448090697468	-0.196258544921875	9.896026611328125	1.9896240234375	-6.387624701779237	0	-9.298706	-26.159668	-26.159668	24.035065	-78.44149	-1.1579931
1448090697508	-0.210540771484375	9.897216796875	2.0086669921875	-6.3867545330851385	0	-9.838867	-26.098633	-25.979614	24.029358	-78.45201	-1.1584457
1448090697548	-0.224822998046875	9.879364013671875	2.0372314453125	-6.387276607728145	0	-9.47876	-26.159668	-25.91858	24.044739	-78.45225	-1.1703762
1448090697588	-0.21173095703125	9.86151123046875	2.028900146484375	-6.389191563783767	0	-9.239197	-25.91858	-25.91858	24.048645	-78.45022	-1.1724564
1448090697629	-0.19268798828125	9.87103271484375	2.0419921875	-6.383102239804661	0	-9.239197	-25.91858	-25.979614	24.047424	-78.44031	-1.1669374
1448090697669	-0.205780029296875	9.886505126953125	2.021759033203125	-6.385710622826371	0	-9.1796875	-26.219177	-25.979614	24.043823	-78.440994	-1.1644933
1448090697709	-0.203399658203125	9.862701416015625	1.988433837890625	-6.393722094814535	0	-9.658813	-26.278687	-26.219177	24.044128	-78.44735	-1.1676488
1448090697750	-0.18316650390625	9.874603271484375	2.01580810546875	-6.385014859594039	0	-10.139465	-26.519775	-25.79956	24.029755	-78.45594	-1.1605815
1448090697790	-0.1903076171875	9.878173828125	1.993194580078125	-6.3888433101498245	0	-9.959412	-26.159668	-25.679016	24.028748	-78.45755	-1.1605327
1448090697830	-0.184356689453125	9.88531494140625	2.007476806640625	-6.38484094089111	0	-9.899902	-26.039124	-25.91858	24.025665	-78.45823	-1.1584816
1448090697870	-0.214111328125	9.876983642578125	2.02056884765625	-6.388495091997704	0	-9.719849	-25.85907	-25.679016	24.03009	-78.457466	-1.1615396
1448090697911	-0.20458984375	9.87579345703125	2.016998291015625	-6.387798762095567	0	-9.599304	-25.91858	-26.219177	24.03183	-78.46203	-1.1649793
1448090697951	-0.210540771484375	9.898406982421875	2.036041259765625	-6.382580801645071	0	-9.298706	-25.79956	-26.098633	24.044586	-78.45049	-1.1694651
1448090697991	-0.20220947265625	9.893646240234375	2.013427734375	-6.385362723523384	0	-9.298706	-25.91858	-25.979614	24.0448	-78.4489	-1.1688793
1448090698031	-0.19744873046875	9.88055419921875	2.01104736328125	-6.386928549110126	0	-9.298706	-25.79956	-26.039124	24.036713	-78.45272	-1.164443
1448090698072	-0.205780029296875	9.87579345703125	2.02294921875	-6.387102573990678	0	-9.539795	-25.85907	-25.85907	24.038544	-78.45225	-1.1656129
1448090698112	-0.203399658203125	9.881744384765625	1.983673095703125	-6.390759144515073	0	-9.779358	-25.79956	-25.619507	24.03415	-78.46171	-1.1666034
1448090698153	-0.189117431640625	9.865081787109375	2.050323486328125	-6.382233220316948	0	-10.079956	-26.098633	-25.91858	24.027588	-78.45736	-1.159567
1448090698194	-0.203399658203125	9.893646240234375	1.9705810546875	-6.3918045981173695	0	-10.198975	-26.039124	-25.738525	24.029572	-78.46773	-1.1658554
1448090698234	-0.1998291015625	9.878173828125	2.007476806640625	-6.388146909316565	0	-9.779358	-26.159668	-25.738525	24.029846	-78.4637	-1.1642166
1448090698274	-0.20458984375	9.89959716796875	2.019378662109375	-6.383971479939997	0	-9.838867	-26.399231	-25.979614	24.03064	-78.46529	-1.1655711
1448090698315	-0.179595947265625	9.89483642578125	2.01580810546875	-6.381538163480201	0	-9.47876	-26.399231	-25.979614	24.032867	-78.46266	-1.1660672
1448090698355	-0.196258544921875	9.87579345703125	2.0562744140625	-6.380843247664558	0	-9.298706	-26.278687	-25.979614	24.036652	-78.45394	-1.1649468
1448090698395	-0.18792724609375	9.876983642578125	2.066986083984375	-6.37789142672219	0	-9.239197	-26.399231	-25.91858	24.039276	-78.445595	-1.1631176
1448090698435	-0.19744873046875	9.888885498046875	2.028900146484375	-6.383102239804661	0	-9.1796875	-26.278687	-26.039124	24.03836	-78.44729	-1.1632031
1448090698476	-0.20458984375	9.881744384765625	2.024139404296875	-6.385884585746353	0	-9.059143	-26.69983	-25.679016	24.041016	-78.44437	-1.1638768
1448090698516	-0.1998291015625	9.891265869140625	2.016998291015625	-6.38484094089111	0	-9.239197	-26.69983	-25.79956	24.045898	-78.44727	-1.1689894
1448090698556	-0.220062255859375	9.88531494140625	2.019378662109375	-6.38832099622394	0	-8.879089	-26.579285	-25.738525	24.049683	-78.45147	-1.1738287
1448090698596	-0.20220947265625	9.88531494140625	2.01580810546875	-6.38623253813004	0	-8.938599	-26.638794	-25.619507	24.0448	-78.45618	-1.1722584
1448090698637	-0.1903076171875	9.8876953125	2.00628662109375	-6.385536668752499	0	-8.81958	-26.45874	-25.79956	24.049377	-78.45108	-1.1734205
1448090698677	-0.19744873046875	9.891265869140625	1.997955322265625	-6.387276607728145	0	-8.578491	-26.339722	-26.039124	24.040619	-78.45769	-1.1697255
1448090698717	-0.203399658203125	9.8734130859375	2.02532958984375	-6.3867545330851385	0	-9.059143	-26.159668	-25.979614	24.040527	-78.456055	-1.1689006
1448090698757	-0.212921142578125	9.878173828125	2.00628662109375	-6.390236537685045	0	-9.1796875	-25.679016	-25.91858	24.038635	-78.46064	-1.1695641
1448090698798	-0.1903076171875	9.87579345703125	1.993194580078125	-6.389191563783767	0	-9.059143	-25.738525	-26.039124	24.037964	-78.4609	-1.1691765
1448090698838	-0.210540771484375	9.86865234375	2.009857177734375	-6.390759144515073	0	-9.359741	-25.979614	-25.738525	24.040192	-78.46172	-1.1712532
1448090698878	-0.1903076171875	9.87579345703125	2.00390625	-6.38623253813004	0	-9.4192505	-26.098633	-25.85907	24.041077	-78.45964	-1.1709816
1448090698918	-0.195068359375	9.879364013671875	2.021759033203125	-6.385188787137681	0	-9.658813	-26.219177	-25.979614	24.039734	-78.455734	-1.1681347
1448090698959	-0.189117431640625	9.865081787109375	2.013427734375	-6.387624701779237	0	-9.658813	-26.579285	-26.219177	24.043457	-78.4507	-1.1686811
1448090698999	-0.201019287109375	9.878173828125	2.032470703125	-6.384667031027547	0	-9.599304	-26.278687	-26.519775	24.042267	-78.451515	-1.1681423
1448090699039	-0.205780029296875	9.879364013671875	1.99676513671875	-6.390410731078596	0	-9.4192505	-26.519775	-26.399231	24.041382	-78.45548	-1.1693028
1448090699079	-0.196258544921875	9.881744384765625	2.032470703125	-6.383449909371668	0	-9.239197	-26.399231	-26.519775	24.049011	-78.44895	-1.1721405
1448090699120	-0.172454833984375	9.859130859375	2.02294921875	-6.384667031027547	0	-9.298706	-26.219177	-26.278687	24.045166	-78.44569	-1.1676897
1448090699160	-0.198638916015625	9.8734130859375	2.021759033203125	-6.386580525914362	0	-9.1796875	-26.339722	-26.098633	24.045197	-78.44923	-1.1693473
1448090699200	-0.1998291015625	9.89007568359375	2.0277099609375	-6.383449909371668	0	-9.298706	-26.219177	-26.219177	24.046814	-78.447266	-1.1696743
1448090699241	-0.19268798828125	9.88055419921875	2.02294921875	-6.384493130002001	0	-9.359741	-26.278687	-25.979614	24.04654	-78.44596	-1.1688715
1448090699281	-0.1807861328125	9.87579345703125	2.014617919921875	-6.384667031027547	0	-9.539795	-26.579285	-26.098633	24.045898	-78.4402	-1.1657239
1448090699321	-0.18316650390625	9.888885498046875	2.02294921875	-6.38188567426557	0	-9.4192505	-26.45874	-26.339722	24.044952	-78.432976	-1.1616565
1448090699362	-0.17840576171875	9.88055419921875	2.005096435546875	-6.385014859594039	0	-9.4192505	-26.399231	-26.159668	24.044006	-78.43272	-1.1608129
1448090699402	-0.177215576171875	9.86865234375	1.98486328125	-6.3895398529103815	0	-9.239197	-26.339722	-26.098633	24.053436	-78.42848	-1.1660972
1448090699443	-0.210540771484375	9.878173828125	2.009857177734375	-6.389365703909812	0	-9.059143	-26.159668	-26.159668	24.047699	-78.43528	-1.1648341
1448090699483	-0.20458984375	9.8876953125	2.01104736328125	-6.386928549110126	0	-9.47876	-26.159668	-26.159668	24.049438	-78.4364	-1.1666769
1448090699523	-0.1998291015625	9.884124755859375	1.9896240234375	-6.38988817754052	0	-9.47876	-26.098633	-25.979614	24.04715	-78.440636	-1.1668836
1448090699563	-0.203399658203125	9.878173828125	2.000335693359375	-6.3897140107868315	0	-9.47876	-26.098633	-26.098633	24.054901	-78.43956	-1.1723404
1448090699604	-0.189117431640625	9.884124755859375	2.0181884765625	-6.384145354459573	0	-9.4192505	-25.979614	-25.979614	24.05188	-78.4389	-1.1697077
1448090699644	-0.196258544921875	9.897216796875	2.0277099609375	-6.38188567426557	0	-9.4192505	-26.039124	-25.91858	24.048462	-78.439354	-1.1672977
1448090699684	-0.2093505859375	9.874603271484375	2.038421630859375	-6.385536668752499	0	-9.118652	-25.979614	-26.278687	24.053955	-78.433586	-1.168845
1448090699725	-0.19268798828125	9.874603271484375	2.031280517578125	-6.384145354459573	0	-9.539795	-26.339722	-26.278687	24.052368	-78.4322	-1.1670048
1448090699765	-0.215301513671875	9.88531494140625	2.026519775390625	-6.386580525914362	0	-9.359741	-26.219177	-26.519775	24.053741	-78.43106	-1.1675241
1448090699805	-0.2093505859375	9.89483642578125	2.021759033203125	-6.385014859594039	0	-9.359741	-26.219177	-26.45874	24.053986	-78.43256	-1.1684028
1448090699845	-0.1998291015625	9.898406982421875	2.02294921875	-6.382928418260686	0	-9.359741	-25.979614	-26.098633	24.056976	-78.43239	-1.1706153
1448090699886	-0.21173095703125	9.8829345703125	2.03485107421875	-6.385188787137681	0	-9.239197	-25.79956	-26.039124	24.058441	-78.43477	-1.1728382
1448090699926	-0.214111328125	9.90673828125	2.062225341796875	-6.378064992898297	0	-9.298706	-25.85907	-25.979614	24.06369	-78.42788	-1.1736861
1448090699966	-0.20220947265625	9.884124755859375	2.02294921875	-6.385362723523384	0	-9.359741	-25.79956	-25.91858	24.063263	-78.427185	-1.1730406
1448090700007	-0.1998291015625	9.874603271484375	2.036041259765625	-6.384493130002001	0	-9.539795	-26.159668	-25.679016	24.062134	-78.42111	-1.1693668
1448090700047	-0.174835205078125	9.888885498046875	2.016998291015625	-6.381538163480201	0	-9.719849	-25.91858	-25.679016	24.05484	-78.42818	-1.167039
1448090700087	-0.19268798828125	9.89483642578125	2.024139404296875	-6.382233220316948	0	-9.719849	-25.91858	-25.679016	24.053528	-78.42842	-1.1661501
1448090700127	-0.191497802734375	9.87103271484375	2.033660888671875	-6.384145354459573	0	-9.118652	-26.399231	-26.039124	24.056946	-78.421616	-1.1656197
1448090700168	-0.2093505859375	9.867462158203125	1.978912353515625	-6.395291757436562	0	-9.1796875	-26.339722	-26.039124	24.055908	-78.42362	-1.1657444
1448090700209	-0.21649169921875	9.878173828125	2.005096435546875	-6.3909333645607145	0	-8.459473	-26.45874	-26.339722	24.058075	-78.426315	-1.168653
1448090700250	-0.195068359375	9.860321044921875	2.038421630859375	-6.385536668752499	0	-8.639526	-26.638794	-26.399231	24.054077	-78.42636	-1.1656052
1448090700290	-0.20697021484375	9.881744384765625	2.033660888671875	-6.38484094089111	0	-8.338928	-26.69983	-26.159668	24.059631	-78.41986	-1.1668768
1448090700336	-0.20697021484375	9.8876953125	2.06341552734375	-6.379627484061187	0	-8.279419	-26.69983	-25.85907	24.064117	-78.41706	-1.1690133
1448090700376	-0.2188720703125	9.9114990234375	2.00152587890625	-6.386928549110126	0	-8.639526	-26.579285	-25.498962	24.071564	-78.41767	-1.1750208
1448090700416	-0.195068359375	9.8829345703125	2.009857177734375	-6.386406527596446	0	-9.239197	-26.579285	-26.098633	24.075317	-78.41391	-1.1761823
1448090700457	-0.220062255859375	9.884124755859375	2.019378662109375	-6.388495091997704	0	-9.239197	-26.638794	-26.219177	24.075867	-78.41935	-1.1791122
1448090700497	-0.20220947265625	9.860321044921875	2.014617919921875	-6.390062353172805	0	-9.1796875	-26.45874	-26.579285	24.07373	-78.42419	-1.1796904
1448090700537	-0.198638916015625	9.891265869140625	2.014617919921875	-6.385014859594039	0	-8.879089	-26.399231	-26.039124	24.072968	-78.42769	-1.1807364
1448090700577	-0.193878173828125	9.8734130859375	2.01580810546875	-6.3867545330851385	0	-8.699036	-26.759338	-26.039124	24.070923	-78.43001	-1.1802334
1448090700618	-0.17364501953125	9.8924560546875	2.00152587890625	-6.383102239804661	0	-8.879089	-26.339722	-25.85907	24.062744	-78.42968	-1.173786
1448090700658	-0.20220947265625	9.878173828125	2.036041259765625	-6.384319237813125	0	-9.059143	-26.69983	-25.559998	24.068512	-78.424545	-1.1758697
1448090700698	-0.20458984375	9.8829345703125	2.021759033203125	-6.386058557513792	0	-9.1796875	-26.638794	-25.738525	24.067078	-78.4275	-1.1761242
1448090700738	-0.212921142578125	9.888885498046875	2.0181884765625	-6.386928549110126	0	-9.059143	-26.339722	-25.738525	24.069855	-78.427284	-1.1781634
1448090700778	-0.20458984375	9.86627197265625	2.02056884765625	-6.388669196639215	0	-9.118652	-26.399231	-25.79956	24.071442	-78.42824	-1.1798235
1448090700819	-0.2236328125	9.884124755859375	2.012237548828125	-6.390062353172805	0	-9.059143	-26.098633	-26.039124	24.075714	-78.43105	-1.1844
1448090700859	-0.191497802734375	9.86865234375	2.050323486328125	-6.382059442882337	0	-9.059143	-26.039124	-26.098633	24.075897	-78.42526	-1.181867
1448090700899	-0.203399658203125	9.89959716796875	2.02294921875	-6.38327607017454	0	-9.239197	-25.738525	-25.979614	24.076385	-78.423904	-1.1816117
1448090700939	-0.1998291015625	9.881744384765625	2.012237548828125	-6.386928549110126	0	-9.359741	-25.79956	-25.79956	24.085663	-78.42008	-1.1869797
1448090700979	-0.20220947265625	9.876983642578125	1.98248291015625	-6.392327444963111	0	-9.599304	-26.278687	-25.679016	24.077423	-78.42657	-1.1836355
1448090701020	-0.20458984375	9.876983642578125	2.0277099609375	-6.386058557513792	0	-9.779358	-26.219177	-25.619507	24.069733	-78.43112	-1.1798397
1448090701060	-0.214111328125	9.862701416015625	2.013427734375	-6.391630333624378	0	-10.018921	-26.339722	-25.559998	24.066345	-78.431526	-1.1774265
1448090701100	-0.19268798828125	9.869842529296875	2.012237548828125	-6.387624701779237	0	-10.438538	-25.85907	-25.379944	24.066498	-78.42851	-1.1761541
1448090701140	-0.20220947265625	9.8924560546875	2.036041259765625	-6.382233220316948	0	-10.618591	-25.619507	-25.379944	24.067657	-78.42581	-1.1757852
1448090701181	-0.165313720703125	9.881744384765625	2.03009033203125	-6.379280202243486	0	-10.559082	-25.738525	-25.559998	24.059143	-78.424515	-1.168641
1448090701221	-0.20220947265625	9.87579345703125	2.012237548828125	-6.388146909316565	0	-10.079956	-25.979614	-25.498962	24.064392	-78.42913	-1.1748124
1448090701261	-0.186737060546875	9.88055419921875	2.03485107421875	-6.38188567426557	0	-9.539795	-26.579285	-25.559998	24.058044	-78.4301	-1.1703813
1448090701301	-0.189117431640625	9.87103271484375	1.983673095703125	-6.391107593493106	0	-9.239197	-26.759338	-25.559998	24.050903	-78.435356	-1.1673182
1448090701342	-0.205780029296875	9.881744384765625	2.03961181640625	-6.3837976142530515	0	-8.938599	-26.759338	-25.498962	24.05774	-78.42774	-1.1690629
1448090701382	-0.1998291015625	9.874603271484375	2.0467529296875	-6.382928418260686	0	-8.999634	-26.759338	-25.85907	24.059296	-78.42364	-1.1683532
1448090701422	-0.205780029296875	9.881744384765625	2.019378662109375	-6.3867545330851385	0	-9.1796875	-26.45874	-25.91858	24.058228	-78.422	-1.166782
1448090701462	-0.201019287109375	9.891265869140625	2.04437255859375	-6.381016963402434	0	-9.47876	-26.339722	-26.219177	24.059479	-78.42334	-1.1683704
1448090701503	-0.174835205078125	9.88055419921875	2.009857177734375	-6.3837976142530515	0	-9.4192505	-26.339722	-26.219177	24.05252	-78.421745	-1.1622919
1448090701543	-0.20697021484375	9.886505126953125	2.03485107421875	-6.383971479939997	0	-9.47876	-26.159668	-25.85907	24.05719	-78.413124	-1.1618811
1448090701583	-0.201019287109375	9.88055419921875	2.0277099609375	-6.385014859594039	0	-9.298706	-26.219177	-26.098633	24.065948	-78.40787	-1.1647675
1448090701623	-0.198638916015625	9.869842529296875	2.024139404296875	-6.3867545330851385	0	-9.4192505	-26.039124	-25.679016	24.07306	-78.40073	-1.1683464
1448090701664	-0.20458984375	9.8876953125	2.0372314453125	-6.383102239804661	0	-9.47876	-25.79956	-25.91858	24.072876	-78.4045	-1.169939
1448090701704	-0.203399658203125	9.872222900390625	2.01104736328125	-6.38901743253089	0	-9.838867	-26.039124	-25.85907	24.072632	-78.40848	-1.1715811
1448090701744	-0.201019287109375	9.886505126953125	2.005096435546875	-6.387450650323881	0	-9.779358	-26.039124	-26.039124	24.067932	-78.41149	-1.169383
1448090701785	-0.186737060546875	9.869842529296875	1.975341796875	-6.394070846335612	0	-9.599304	-26.219177	-25.91858	24.05896	-78.422485	-1.1675625
1448090701825	-0.181976318359375	9.8829345703125	2.024139404296875	-6.382407006570745	0	-9.599304	-26.519775	-25.559998	24.054565	-78.41793	-1.1620878
1448090701865	-0.20220947265625	9.893646240234375	2.038421630859375	-6.381711914465306	0	-9.539795	-26.638794	-25.679016	24.060974	-78.40979	-1.163245
1448090701905	-0.191497802734375	9.886505126953125	1.995574951171875	-6.387450650323881	0	-9.4192505	-26.759338	-25.679016	24.055878	-78.414505	-1.1615216
1448090701946	-0.189117431640625	9.8734130859375	2.026519775390625	-6.384493130002001	0	-9.4192505	-26.519775	-25.79956	24.058838	-78.41358	-1.1633558
1448090701986	-0.167694091796875	9.8876953125	2.031280517578125	-6.378585744154314	0	-9.539795	-26.278687	-25.79956	24.04663	-78.40886	-1.1518173
1448090702026	-0.1998291015625	9.898406982421875	2.033660888671875	-6.3813644213089145	0	-9.719849	-25.91858	-25.679016	24.045746	-78.41338	-1.1532221
1448090702066	-0.208160400390625	9.8734130859375	2.002716064453125	-6.390759144515073	0	-9.838867	-25.979614	-25.738525	24.045929	-78.421135	-1.1569343
1448090702107	-0.21649169921875	9.865081787109375	2.01580810546875	-6.3912818313136075	0	-9.779358	-26.098633	-25.679016	24.052277	-78.42126	-1.1618683
1448090702147	-0.184356689453125	9.88055419921875	2.005096435546875	-6.385884585746353	0	-9.899902	-26.339722	-25.91858	24.049866	-78.41989	-1.1593884
1448090702187	-0.201019287109375	9.878173828125	2.040802001953125	-6.383449909371668	0	-9.359741	-26.159668	-25.738525	24.042175	-78.42155	-1.1542357
1448090702227	-0.214111328125	9.8829345703125	2.024139404296875	-6.387102573990678	0	-9.298706	-25.979614	-25.498962	24.049927	-78.41701	-1.1580999
1448090702268	-0.20220947265625	9.879364013671875	2.016998291015625	-6.386928549110126	0	-9.239197	-25.979614	-26.039124	24.052216	-78.41902	-1.1607915
1448090702308	-0.2188720703125	9.862701416015625	2.043182373046875	-6.387972831274226	0	-9.359741	-25.979614	-26.098633	24.056305	-78.41316	-1.1612244
1448090702348	-0.177215576171875	9.857940673828125	2.007476806640625	-6.387798762095567	0	-9.059143	-25.979614	-26.339722	24.051208	-78.41439	-1.1628426
1448090702389	-0.217681884765625	9.879364013671875	2.026519775390625	-6.387798762095567	0	-9.1796875	-26.339722	-26.339722	24.052643	-78.41876	-1.1610059
1448090702429	-0.20220947265625	9.879364013671875	2.014617919921875	-6.387276607728145	0	-9.1796875	-26.399231	-25.679016	24.057709	-78.420296	-1.1655976
1448090702469	-0.201019287109375	9.89483642578125	2.007476806640625	-6.385884585746353	0	-8.938599	-26.45874	-25.498962	24.052643	-78.422	-1.1624857
1448090702509	-0.20697021484375	9.853179931640625	2.024139404296875	-6.390410731078596	0	-9.059143	-26.339722	-25.498962	24.05478	-78.42385	-1.1649886
1448090702550	-0.21649169921875	9.876983642578125	2.028900146484375	-6.387624701779237	0	-9.059143	-26.159668	-25.619507	24.059814	-78.423874	-1.168851
1448090702590	-0.20220947265625	9.898406982421875	2.02294921875	-6.38327607017454	0	-9.298706	-26.039124	-25.79956	24.059906	-78.41828	-1.1663532
1448090702630	-0.181976318359375	9.8543701171875	2.0372314453125	-6.384667031027547	0	-9.298706	-25.85907	-25.91858	24.053497	-78.41953	-1.1620101
1448090702671	-0.208160400390625	9.8258056640625	2.03961181640625	-6.392327444963111	0	-9.298706	-26.039124	-25.85907	24.05951	-78.414215	-1.1641816
1448090702711	-0.203399658203125	9.969818115234375	2.000335693359375	-6.376329726334872	0	-9.298706	-26.159668	-25.85907	24.052979	-78.41611	-1.1600357
1448090702751	-0.184356689453125	9.824615478515625	2.047943115234375	-6.387798762095567	0	-9.359741	-26.278687	-26.039124	24.05185	-78.41595	-1.1590767
1448090702791	-0.191497802734375	9.924591064453125	2.028900146484375	-6.377023727600868	0	-9.599304	-26.45874	-26.159668	24.054352	-78.41258	-1.1594473
1448090702832	-0.172454833984375	9.85198974609375	1.969390869140625	-6.393547732417506	0	-9.4192505	-26.759338	-26.339722	24.04535	-78.424545	-1.1580546
1448090702872	-0.19744873046875	9.935302734375	2.047943115234375	-6.373555124216896	0	-9.658813	-26.579285	-26.219177	24.031097	-78.4194	-1.1447526
1448090702912	-0.1998291015625	9.83770751953125	1.983673095703125	-6.397560323834309	0	-9.658813	-26.399231	-26.159668	24.043945	-78.42044	-1.1550974
1448090702952	-0.191497802734375	9.898406982421875	2.0181884765625	-6.382407006570745	0	-9.599304	-26.219177	-26.159668	24.035614	-78.42825	-1.1523058
1448090702993	-0.215301513671875	9.862701416015625	1.990814208984375	-6.395117314813378	0	-9.899902	-26.039124	-26.159668	24.041077	-78.43038	-1.1574721
1448090703033	-0.20697021484375	9.89959716796875	2.043182373046875	-6.380843247664558	0	-9.539795	-26.278687	-26.339722	24.04004	-78.43128	-1.1570982
1448090703073	-0.21173095703125	9.88531494140625	2.026519775390625	-6.386058557513792	0	-9.838867	-26.278687	-26.278687	24.048523	-78.43252	-1.1641774
1448090703113	-0.18792724609375	9.89007568359375	2.00390625	-6.385188787137681	0	-9.899902	-26.638794	-26.219177	24.039612	-78.44178	-1.1616164
1448090703154	-0.195068359375	9.874603271484375	2.04913330078125	-6.38188567426557	0	-9.539795	-26.339722	-26.098633	24.041351	-78.43892	-1.1616259
1448090703194	-0.176025390625	9.82342529296875	2.047943115234375	-6.3867545330851385	0	-9.539795	-26.519775	-25.79956	24.039795	-78.42908	-1.1558924
1448090703234	-0.198638916015625	9.916259765625	2.021759033203125	-6.380322153296306	0	-9.1796875	-26.519775	-25.85907	24.021942	-78.44311	-1.1486458
1448090703274	-0.208160400390625	9.848419189453125	2.043182373046875	-6.388495091997704	0	-9.298706	-26.638794	-25.738525	24.03772	-78.430565	-1.1549752
1448090703315	-0.193878173828125	9.91387939453125	2.01104736328125	-6.381538163480201	0	-9.47876	-26.759338	-25.619507	24.034515	-78.43432	-1.1542486
1448090703355	-0.181976318359375	9.83056640625	1.97772216796875	-6.400529190493097	0	-9.719849	-26.519775	-25.619507	24.03653	-78.44353	-1.1600511
1448090703395	-0.1903076171875	9.915069580078125	2.013427734375	-6.380495842612833	0	-10.198975	-26.339722	-25.498962	24.039398	-78.43534	-1.1584722
1448090703435	-0.20458984375	9.855560302734375	1.969390869140625	-6.397734891474142	0	-9.838867	-26.399231	-25.498962	24.031677	-78.446236	-1.1575627
1448090703476	-0.201019287109375	9.90673828125	2.00628662109375	-6.384319237813125	0	-9.779358	-26.278687	-25.439453	24.028564	-78.44843	-1.1561904
1448090703516	-0.19744873046875	9.87579345703125	2.009857177734375	-6.387798762095567	0	-9.899902	-26.159668	-25.318909	24.02771	-78.44932	-1.1559445
1448090703556	-0.179595947265625	9.88055419921875	2.032470703125	-6.381190687950106	0	-9.47876	-26.039124	-25.85907	24.020416	-78.44998	-1.1506441
1448090703597	-0.201019287109375	9.86151123046875	1.9991455078125	-6.391978871503914	0	-9.4192505	-25.79956	-26.159668	24.023254	-78.45727	-1.1561904
1448090703637	-0.201019287109375	9.905548095703125	2.047943115234375	-6.378412151613023	0	-9.47876	-25.91858	-26.278687	24.02652	-78.45421	-1.1572912
1448090703677	-0.18316650390625	9.86151123046875	2.007476806640625	-6.388146909316565	0	-9.298706	-25.979614	-26.45874	24.024963	-78.4527	-1.155404
1448090703717	-0.210540771484375	9.881744384765625	1.995574951171875	-6.3909333645607145	0	-9.4192505	-25.85907	-25.979614	24.021881	-78.4604	-1.1565628
1448090703758	-0.195068359375	9.87103271484375	2.026519775390625	-6.385710622826371	0	-9.359741	-25.85907	-26.039124	24.02475	-78.461075	-1.1590844
1448090703798	-0.193878173828125	9.89483642578125	1.976531982421875	-6.389365703909812	0	-9.298706	-25.619507	-25.979614	24.012909	-78.46849	-1.1534151
1448090703838	-0.196258544921875	9.89007568359375	2.014617919921875	-6.38484094089111	0	-9.539795	-25.79956	-25.979614	24.010681	-78.47077	-1.1527396
1448090703878	-0.196258544921875	9.793670654296875	2.021759033203125	-6.397909468054026	0	-9.719849	-25.79956	-25.979614	24.010254	-78.46487	-1.1497021
1448090703919	-0.205780029296875	9.90911865234375	2.02056884765625	-6.382580801645071	0	-9.599304	-26.399231	-26.098633	24.004517	-78.47096	-1.1480831
1448090703959	-0.185546875	9.843658447265625	2.031280517578125	-6.387624701779237	0	-9.599304	-26.638794	-25.979614	24.009918	-78.46279	-1.1484708
1448090704000	-0.16888427734375	9.907928466796875	2.033660888671875	-6.375462422151364	0	-9.4192505	-26.45874	-25.979614	24.003632	-78.45729	-1.1411251
1448090704041	-0.229583740234375	9.86865234375	2.016998291015625	-6.392501745038486	0	-9.4192505	-26.278687	-25.85907	24.016418	-78.45826	-1.151387
1448090704081	-0.20697021484375	9.862701416015625	2.00152587890625	-6.392327444963111	0	-9.719849	-26.159668	-25.439453	24.01941	-78.458244	-1.1536798
1448090704121	-0.203399658203125	9.900787353515625	1.9991455078125	-6.386580525914362	0	-9.599304	-26.339722	-25.979614	24.016022	-78.469765	-1.1563766
1448090704162	-0.20697021484375	9.848419189453125	1.971771240234375	-6.398782485102268	0	-9.719849	-26.579285	-25.738525	24.011871	-78.47586	-1.1560146
1448090704202	-0.217681884765625	9.90435791015625	2.0467529296875	-6.381190687950106	0	-9.779358	-26.519775	-25.979614	24.019958	-78.46516	-1.1572988
1448090704242	-0.20458984375	9.86627197265625	2.03009033203125	-6.387276607728145	0	-9.658813	-26.519775	-26.039124	24.021667	-78.46543	-1.1587429
1448090704283	-0.212921142578125	9.8829345703125	1.9705810546875	-6.394768456324099	0	-9.47876	-26.219177	-25.91858	24.021149	-78.4601	-1.1558626
1448090704323	-0.1998291015625	9.86865234375	2.013427734375	-6.388669196639215	0	-9.359741	-25.91858	-26.219177	24.02594	-78.46751	-1.162982
1448090704363	-0.215301513671875	9.893646240234375	1.959869384765625	-6.395117314813378	0	-9.239197	-26.039124	-25.738525	24.0195	-78.480316	-1.1639348
1448090704403	-0.20220947265625	9.869842529296875	2.02532958984375	-6.387102573990678	0	-9.4192505	-26.039124	-25.85907	24.029846	-78.4732	-1.1686077
1448090704444	-0.181976318359375	9.89007568359375	2.0086669921875	-6.383623757397391	0	-9.658813	-26.399231	-25.85907	24.021088	-78.474785	-1.1625917
1448090704484	-0.201019287109375	9.90435791015625	2.007476806640625	-6.384493130002001	0	-9.779358	-26.399231	-25.79956	24.019958	-78.47692	-1.1627035
1448090704524	-0.193878173828125	9.8448486328125	2.03485107421875	-6.388146909316565	0	-9.539795	-26.759338	-26.159668	24.015167	-78.47303	-1.1572305
1448090704564	-0.22125244140625	9.903167724609375	2.021759033203125	-6.385536668752499	0	-9.4192505	-26.879883	-26.159668	24.017548	-78.47206	-1.158625
1448090704605	-0.20458984375	9.878173828125	2.040802001953125	-6.383971479939997	0	-9.239197	-26.519775	-26.278687	24.016174	-78.47304	-1.158006
1448090704645	-0.20220947265625	9.878173828125	2.050323486328125	-6.382233220316948	0	-9.239197	-26.579285	-26.339722	24.01413	-78.46762	-1.1539463
1448090704685	-0.210540771484375	9.898406982421875	1.981292724609375	-6.388669196639215	0	-9.118652	-26.278687	-26.219177	24.009583	-78.47524	-1.1539522
1448090704726	-0.185546875	9.86865234375	2.02532958984375	-6.38484094089111	0	-9.239197	-26.219177	-26.039124	24.015015	-78.47157	-1.1564398
1448090704766	-0.20458984375	9.90435791015625	2.045562744140625	-6.379453838753463	0	-9.118652	-25.979614	-26.039124	24.02652	-78.45873	-1.1593637
1448090704806	-0.195068359375	9.89483642578125	2.032470703125	-6.3813644213089145	0	-9.1796875	-26.159668	-25.91858	24.02536	-78.45904	-1.1586267
1448090704847	-0.215301513671875	9.86627197265625	2.059844970703125	-6.384493130002001	0	-9.47876	-26.219177	-25.79956	24.035278	-78.4515	-1.1627598
1448090704887	-0.184356689453125	9.8876953125	2.01580810546875	-6.38327607017454	0	-9.4192505	-26.399231	-25.738525	24.036194	-78.45051	-1.1630186
1448090704927	-0.203399658203125	9.86627197265625	2.014617919921875	-6.389365703909812	0	-9.599304	-26.69983	-25.738525	24.03363	-78.45852	-1.1647452
1448090704968	-0.205780029296875	9.898406982421875	1.983673095703125	-6.3895398529103815	0	-9.47876	-26.69983	-25.91858	24.035614	-78.466866	-1.17012
1448090705011	-0.184356689453125	9.836517333984375	2.0086669921875	-6.3918045981173695	0	-9.4192505	-26.638794	-25.679016	24.026245	-78.47157	-1.1650928
1448090705051	-0.203399658203125	9.91387939453125	2.014617919921875	-6.382407006570745	0	-9.658813	-26.098633	-25.79956	24.019958	-78.48335	-1.1656897
1448090705092	-0.177215576171875	9.865081787109375	1.997955322265625	-6.388146909316565	0	-9.658813	-26.039124	-25.79956	24.00821	-78.48766	-1.1586344
1448090705132	-0.205780029296875	9.876983642578125	1.994384765625	-6.391107593493106	0	-9.779358	-25.979614	-25.679016	24.00708	-78.48823	-1.1580255
1448090705173	-0.20697021484375	9.86865234375	2.03485107421875	-6.386580525914362	0	-9.779358	-26.159668	-25.85907	24.0159	-78.47861	-1.1603756
1448090705213	-0.19268798828125	9.86865234375	2.038421630859375	-6.386928549110126	0	-9.779358	-26.219177	-25.979614	24.016418	-78.47347	-1.158392
1448090705253	-0.212921142578125	9.87103271484375	2.01580810546875	-6.38988817754052	0	-9.4192505	-26.399231	-25.738525	24.022217	-78.466995	-1.1598735
1448090705293	-0.184356689453125	9.8829345703125	2.00628662109375	-6.385362723523384	0	-9.239197	-26.278687	-25.679016	24.027985	-78.46768	-1.1646154
1448090705334	-0.201019287109375	9.888885498046875	2.026519775390625	-6.383971479939997	0	-9.059143	-26.219177	-25.85907	24.024475	-78.46777	-1.1619811
1448090705374	-0.18316650390625	9.8829345703125	2.0181884765625	-6.383449909371668	0	-9.118652	-26.339722	-25.619507	24.022797	-78.46683	-1.1602459
1448090705414	-0.184356689453125	9.872222900390625	2.033660888671875	-6.3867545330851385	0	-9.239197	-26.339722	-25.559998	24.021332	-78.46657	-1.159006
1448090705455	-0.1998291015625	9.907928466796875	1.97296142578125	-6.3888433101498245	0	-9.539795	-26.278687	-25.679016	24.013062	-78.47328	-1.1557404
1448090705495	-0.181976318359375	9.872222900390625	2.024139404296875	-6.383971479939997	0	-9.658813	-25.979614	-25.439453	24.014038	-78.47512	-1.1573244
1448090705536	-0.185546875	9.9019775390625	1.990814208984375	-6.385014859594039	0	-9.47876	-26.098633	-25.619507	24.012512	-78.47664	-1.1568462
1448090705576	-0.19268798828125	9.869842529296875	2.0181884765625	-6.3867545330851385	0	-9.658813	-25.85907	-26.039124	24.018372	-78.47293	-1.159649
1448090705617	-0.21173095703125	9.86627197265625	2.00152587890625	-6.392501745038486	0	-9.599304	-26.159668	-25.979614	24.028748	-78.46654	-1.164683
1448090705657	-0.1998291015625	9.860321044921875	2.002716064453125	-6.391456078023577	0	-9.4192505	-26.278687	-25.91858	24.022675	-78.4726	-1.1628102
1448090705697	-0.196258544921875	9.881744384765625	2.00628662109375	-6.387276607728145	0	-9.719849	-26.45874	-26.039124	24.021423	-78.47402	-1.1624994
1448090705738	-0.214111328125	9.89959716796875	2.051513671875	-6.380669540735138	0	-9.658813	-26.818848	-25.91858	24.028687	-78.46754	-1.1651057
1448090705778	-0.1903076171875	9.900787353515625	1.993194580078125	-6.385536668752499	0	-9.359741	-26.879883	-25.91858	24.026062	-78.465355	-1.1620853
1448090705818	-0.220062255859375	9.87579345703125	1.994384765625	-6.393373378927664	0	-9.599304	-26.879883	-25.979614	24.028198	-78.4612	-1.1617916
1448090705858	-0.196258544921875	9.88531494140625	2.019378662109375	-6.38484094089111	0	-9.47876	-26.638794	-25.85907	24.025269	-78.45931	-1.1586806
1448090705899	-0.23077392578125	9.859130859375	2.007476806640625	-6.395466208980601	0	-9.239197	-26.45874	-25.91858	24.032623	-78.45772	-1.1636002
1448090705939	-0.208160400390625	9.79962158203125	1.988433837890625	-6.403675519566846	0	-9.47876	-26.278687	-26.039124	24.045532	-78.457985	-1.1736408
1448090705979	-0.210540771484375	9.984100341796875	2.051513671875	-6.367839577669374	0	-9.4192505	-26.638794	-25.979614	24.056122	-78.44411	-1.1753864
1448090706020	-0.203399658203125	9.8067626953125	2.028900146484375	-6.395989617151535	0	-9.4192505	-26.399231	-25.979614	24.063293	-78.44441	-1.1810216
1448090706060	-0.184356689453125	9.935302734375	2.05389404296875	-6.370782762734516	0	-9.539795	-26.159668	-25.91858	24.070007	-78.434875	-1.1817722
1448090706100	-0.21649169921875	9.829376220703125	1.975341796875	-6.40245160159558	0	-9.658813	-26.519775	-25.79956	24.067993	-78.42838	-1.17723
1448090706140	-0.222442626953125	9.967437744140625	2.0372314453125	-6.374075191276835	0	-9.4192505	-26.45874	-25.85907	24.073425	-78.43552	-1.1847124
1448090706181	-0.185546875	9.8162841796875	2.055084228515625	-6.388146909316565	0	-9.359741	-26.519775	-25.85907	24.076355	-78.42999	-1.1844169
1448090706222	-0.22125244140625	9.8924560546875	2.02056884765625	-6.387276607728145	0	-9.658813	-26.818848	-25.738525	24.065704	-78.4416	-1.1782932
1448090706262	-0.210540771484375	9.926971435546875	1.997955322265625	-6.393199034343643	0	-9.359741	-26.45874	-26.039124	24.076172	-78.4388	-1.1883401
1448090706303	-0.212921142578125	9.836517333984375	1.98248291015625	-6.399830400869101	0	-9.779358	-26.278687	-25.91858	24.075348	-78.44575	-1.1909283
1448090706344	-0.214111328125	9.90673828125	2.03009033203125	-6.382754605541271	0	-9.599304	-26.219177	-26.278687	24.075806	-78.451546	-1.19396
1448090706384	-0.20458984375	9.874603271484375	1.97296142578125	-6.394419633501824	0	-9.658813	-25.85907	-26.339722	24.069885	-78.463936	-1.1951333
1448090706424	-0.196258544921875	9.903167724609375	2.016998291015625	-6.382233220316948	0	-9.599304	-25.979614	-26.159668	24.062592	-78.45721	-1.1864212
1448090706464	-0.20220947265625	9.874603271484375	2.03009033203125	-6.385710622826371	0	-9.298706	-26.098633	-26.339722	24.061554	-78.45551	-1.1848285
1448090706505	-0.19744873046875	9.876983642578125	1.97296142578125	-6.393024698664078	0	-9.599304	-26.098633	-25.85907	24.061798	-78.447784	-1.181434
1448090706545	-0.210540771484375	9.867462158203125	2.00152587890625	-6.392153153785374	0	-9.599304	-26.339722	-25.85907	24.0578	-78.45803	-1.1831079
1448090706585	-0.17840576171875	9.891265869140625	2.0419921875	-6.378064992898297	0	-10.079956	-26.219177	-25.85907	24.055786	-78.45415	-1.179757
1448090706625	-0.186737060546875	9.865081787109375	2.032470703125	-6.384493130002001	0	-9.658813	-26.219177	-25.979614	24.05841	-78.44752	-1.1787109
1448090706666	-0.201019287109375	9.867462158203125	2.036041259765625	-6.385710622826371	0	-9.47876	-26.45874	-25.91858	24.062012	-78.44433	-1.1799995
1448090706706	-0.20220947265625	9.903167724609375	2.03485107421875	-6.380843247664558	0	-9.298706	-26.278687	-25.85907	24.061768	-78.44402	-1.1796852
1448090706746	-0.1903076171875	9.878173828125	2.0181884765625	-6.385188787137681	0	-8.938599	-26.278687	-25.79956	24.060486	-78.44117	-1.1773623
1448090706787	-0.214111328125	9.886505126953125	2.03485107421875	-6.385014859594039	0	-9.239197	-25.979614	-25.738525	24.061707	-78.443924	-1.179593
1448090706827	-0.208160400390625	9.872222900390625	2.043182373046875	-6.385014859594039	0	-9.059143	-26.098633	-25.85907	24.061615	-78.44004	-1.1777297
1448090706867	-0.186737060546875	9.88531494140625	2.024139404296875	-6.382754605541271	0	-8.938599	-26.219177	-25.738525	24.070435	-78.43837	-1.1837218
1448090706907	-0.19268798828125	9.862701416015625	2.04913330078125	-6.38327607017454	0	-9.239197	-26.039124	-25.559998	24.066895	-78.43257	-1.1783155
1448090706948	-0.201019287109375	9.8829345703125	2.01104736328125	-6.387102573990678	0	-9.539795	-26.399231	-25.619507	24.059113	-78.43789	-1.174792
1448090706988	-0.201019287109375	9.865081787109375	2.007476806640625	-6.390236537685045	0	-9.47876	-26.159668	-25.619507	24.057434	-78.43834	-1.1737331
1448090707028	-0.20697021484375	9.884124755859375	2.01104736328125	-6.387798762095567	0	-9.719849	-26.399231	-25.738525	24.057465	-78.44087	-1.1749107
1448090707069	-0.195068359375	9.857940673828125	2.007476806640625	-6.390410731078596	0	-9.4192505	-26.818848	-26.159668	24.052856	-78.445274	-1.1734163
1448090707109	-0.195068359375	9.8829345703125	2.012237548828125	-6.386058557513792	0	-9.059143	-26.69983	-26.219177	24.04773	-78.44681	-1.170161
1448090707149	-0.193878173828125	9.87103271484375	2.031280517578125	-6.38484094089111	0	-9.059143	-26.579285	-26.039124	24.04541	-78.44581	-1.1679186
1448090707189	-0.205780029296875	9.891265869140625	2.021759033203125	-6.385014859594039	0	-9.1796875	-26.219177	-26.098633	24.054047	-78.44772	-1.1754513
1448090707230	-0.20458984375	9.888885498046875	2.02056884765625	-6.385362723523384	0	-8.999634	-25.979614	-26.159668	24.055878	-78.44799	-1.1769918
1448090707270	-0.1903076171875	9.878173828125	2.00628662109375	-6.386928549110126	0	-9.1796875	-25.85907	-26.219177	24.055817	-78.44234	-1.1743343
1448090707310	-0.18316650390625	9.886505126953125	2.0277099609375	-6.381538163480201	0	-9.239197	-26.098633	-26.339722	24.049957	-78.44422	-1.1706802
1448090707350	-0.19744873046875	9.872222900390625	2.01580810546875	-6.387450650323881	0	-9.47876	-25.91858	-25.85907	24.045288	-78.443375	-1.1667187
1448090707391	-0.21649169921875	9.86627197265625	2.005096435546875	-6.392676054012863	0	-9.47876	-26.159668	-25.79956	24.049011	-78.439476	-1.1677735
1448090707431	-0.210540771484375	9.87103271484375	2.02294921875	-6.388495091997704	0	-9.239197	-26.098633	-26.039124	24.053558	-78.439964	-1.1714898
1448090707472	-0.1998291015625	9.867462158203125	2.040802001953125	-6.38484094089111	0	-9.298706	-26.278687	-25.79956	24.055725	-78.446495	-1.1761644
1448090707512	-0.19744873046875	9.86865234375	2.009857177734375	-6.3888433101498245	0	-9.059143	-26.219177	-25.979614	24.055084	-78.443474	-1.1742883
1448090707552	-0.20458984375	9.86865234375	2.08245849609375	-6.379280202243486	0	-9.1796875	-26.399231	-25.85907	24.057587	-78.43336	-1.1715266
1448090707593	-0.214111328125	9.87103271484375	2.0181884765625	-6.3897140107868315	0	-9.239197	-26.219177	-25.79956	24.057007	-78.43601	-1.1723095
1448090707633	-0.196258544921875	9.872222900390625	1.99676513671875	-6.390062353172805	0	-8.81958	-26.45874	-25.91858	24.058685	-78.43924	-1.1750934
1448090707673	-0.186737060546875	9.881744384765625	2.033660888671875	-6.38188567426557	0	-9.059143	-26.579285	-25.979614	24.058655	-78.43982	-1.1753438
1448090707713	-0.19744873046875	9.874603271484375	2.014617919921875	-6.387276607728145	0	-9.118652	-26.278687	-26.098633	24.05423	-78.43835	-1.1712592
1448090707754	-0.1998291015625	9.867462158203125	2.013427734375	-6.3888433101498245	0	-8.938599	-26.45874	-25.979614	24.044342	-78.45001	-1.1690458
1448090707794	-0.2093505859375	9.876983642578125	1.99200439453125	-6.391978871503914	0	-9.298706	-25.979614	-25.979614	24.052399	-78.44141	-1.1712643
1448090707834	-0.198638916015625	9.87579345703125	2.00628662109375	-6.388495091997704	0	-9.239197	-26.219177	-25.979614	24.05426	-78.440216	-1.1721593
1448090707875	-0.22125244140625	9.910308837890625	2.012237548828125	-6.385884585746353	0	-9.059143	-26.519775	-25.979614	24.043701	-78.44618	-1.1667862
1448090707915	-0.20220947265625	9.878173828125	2.026519775390625	-6.385710622826371	0	-9.239197	-26.519775	-25.738525	24.049133	-78.44889	-1.1722182
1448090707955	-0.208160400390625	9.896026611328125	2.014617919921875	-6.385710622826371	0	-9.059143	-26.519775	-25.738525	24.055298	-78.45015	-1.177529
1448090707995	-0.222442626953125	9.888885498046875	2.0086669921875	-6.38901743253089	0	-9.1796875	-26.519775	-25.498962	24.052673	-78.455246	-1.1778849
1448090708036	-0.184356689453125	9.872222900390625	2.03961181640625	-6.382059442882337	0	-9.118652	-26.399231	-25.379944	24.056854	-78.45465	-1.1808081
1448090708076	-0.172454833984375	9.881744384765625	2.016998291015625	-6.382233220316948	0	-8.938599	-26.579285	-25.85907	24.045563	-78.45121	-1.1705316
1448090708117	-0.205780029296875	9.896026611328125	2.013427734375	-6.385536668752499	0	-9.1796875	-26.579285	-25.85907	24.049438	-78.45441	-1.1750021
1448090708158	-0.20220947265625	9.86151123046875	2.00628662109375	-6.391107593493106	0	-9.4192505	-26.519775	-25.91858	24.051483	-78.459435	-1.1788987
1448090708198	-0.203399658203125	9.8876953125	2.016998291015625	-6.385884585746353	0	-9.539795	-26.45874	-26.339722	24.057648	-78.44967	-1.1791302
1448090708239	-0.20220947265625	9.898406982421875	1.997955322265625	-6.386928549110126	0	-9.658813	-26.039124	-26.159668	24.05539	-78.45575	-1.1801925
1448090708279	-0.189117431640625	9.891265869140625	1.99676513671875	-6.38623253813004	0	-9.47876	-25.91858	-26.399231	24.04898	-78.46423	-1.1791908
1448090708319	-0.203399658203125	9.891265869140625	2.021759033203125	-6.384667031027547	0	-9.298706	-26.039124	-26.219177	24.046387	-78.45873	-1.1746384
1448090708360	-0.191497802734375	9.87579345703125	1.9991455078125	-6.388495091997704	0	-9.298706	-25.91858	-25.91858	24.037994	-78.46724	-1.1721259
1448090708400	-0.185546875	9.8734130859375	2.043182373046875	-6.381538163480201	0	-8.938599	-26.278687	-25.91858	24.04309	-78.44764	-1.1669852
1448090708440	-0.205780029296875	9.876983642578125	2.0277099609375	-6.38623253813004	0	-9.059143	-26.278687	-25.91858	24.047363	-78.444984	-1.1690432
1448090708480	-0.2093505859375	9.878173828125	2.0419921875	-6.384493130002001	0	-9.118652	-26.219177	-25.85907	24.055939	-78.437355	-1.1721243
