timestamp	accel_x	accel_y	accel_z	accel_mag	temperature	mag_x	mag_y	mag_z	azimuth	pitch	roll
1448101365121	-4.554595947265625	3.277557373046875	6.5905914306640625	-7.50148550036114	0	-6.8481445	-29.43573	-26.522827	130.15015	-23.55529	-23.24013
1448101365162	-3.850006103515625	3.368011474609375	7.9712066650390625	-7.069957524971007	0	-5.3131104	-30.62439	-23.371887	130.81934	-23.35211	-22.90422
1448101365202	-3.847625732421875	3.191864013671875	6.9500274658203125	-7.2977624709698095	0	-6.335449	-29.945374	-24.36676	131.5036	-23.064346	-22.282005
1448101365242	-3.921417236328125	3.046661376953125	8.178298950195313	-7.104093183945633	0	-7.017517	-28.926086	-25.030518	132.32901	-22.091843	-21.494236
1448101365282	-3.742889404296875	3.041900634765625	9.549392700195313	-6.83197331238623	0	-7.699585	-29.605103	-25.694275	133.10889	-21.017036	-20.360916
1448101365322	-2.874053955078125	3.415618896484375	8.580581665039063	-6.786310840590703	0	-6.8481445	-29.095459	-26.522827	133.36963	-20.524265	-19.484175
1448101365362	-3.364410400390625	3.227569580078125	7.1785430908203125	-7.152979403436163	0	-8.21228	-27.7359	-24.864197	133.92578	-19.679567	-17.992918
1448101365403	-1.445831298828125	3.158538818359375	9.527969360351563	-6.453888130500502	0	-9.576416	-28.416443	-25.196838	134.97226	-18.25899	-15.214549
1448101365443	-2.490814208984375	2.387298583984375	10.934768676757813	-6.515513089607353	0	-11.621094	-26.376343	-26.855469	136.33282	-17.174423	-13.22334
1448101365483	-1.324432373046875	2.353973388671875	10.032608032226563	-6.4806190848636	0	-11.962891	-26.037598	-26.855469	136.89609	-16.920942	-12.140606
1448101365524	-2.321807861328125	2.977630615234375	8.030715942382813	-6.8593065473066535	0	-12.6449585	-26.376343	-24.533081	136.96393	-17.170765	-11.339629
1448101365564	-2.040924072265625	3.613189697265625	9.192337036132813	-6.52565460863293	0	-14.009094	-27.397156	-25.527954	136.87158	-17.03214	-9.999795
1448101365604	-0.962615966796875	2.894317626953125	9.980239868164063	-6.355231933809389	0	-14.349365	-27.397156	-26.522827	136.73834	-16.747055	-8.939561
1448101365644	-0.467498779296875	2.144500732421875	8.254470825195313	-6.655176071309937	0	-15.544128	-27.9068	-26.358032	137.08734	-16.691916	-8.08482
1448101365684	-1.864776611328125	2.123077392578125	8.842422485351563	-6.78985949631037	0	-14.520264	-26.20697	-25.694275	137.60141	-15.956486	-8.082339
1448101365724	0.482269287109375	3.701263427734375	8.266372680664063	-6.278157653084323	0	-15.37323	-27.397156	-25.196838	137.56381	-14.591551	-8.587189
1448101365765	-2.919281005859375	0.851959228515625	9.009048461914063	-7.171884325668078	0	-14.009094	-26.376343	-25.85907	137.69724	-12.373694	-9.534729
1448101365805	-1.693389892578125	0.528228759765625	12.020217895507813	-6.511898683841688	0	-13.667297	-24.67804	-28.512573	137.09576	-9.372263	-11.29012
1448101365845	-2.433685302734375	1.013824462890625	11.491775512695313	-6.63297200150182	0	-13.497925	-23.149109	-29.342651	135.39557	-7.1478415	-14.291573
1448101365885	-3.638153076171875	1.437530517578125	10.551528930664063	-6.916806517401232	0	-11.109924	-20.770264	-30.66864	133.14005	-7.1964865	-15.904883
1448101365925	-1.650543212890625	2.225433349609375	8.866226196289063	-6.733960038499822	0	-11.109924	-21.78955	-29.673767	130.87042	-8.471602	-16.661839
1448101365966	-2.478912353515625	1.349456787109375	6.8548126220703125	-7.413828164729436	0	-9.916687	-20.26062	-30.83496	129.2612	-9.274345	-17.459887
1448101366006	-2.866912841796875	1.170928955078125	9.865982055664063	-6.9482791347112	0	-8.72345	-20.429993	-31.332397	127.62219	-8.651262	-18.11096
1448101366046	-1.867156982421875	2.201629638671875	7.4403839111328125	-7.018257021207252	0	-10.598755	-20.599365	-30.50232	125.71701	-9.241642	-18.517462
1448101366086	-2.597930908203125	1.708892822265625	7.2285308837890625	-7.288765057464735	0	-9.745789	-20.429993	-30.999756	124.39105	-9.94164	-18.814077
1448101366126	-2.904998779296875	0.661529541015625	10.032608032226563	-7.0156971364188765	0	-9.576416	-19.239807	-31.497192	123.52017	-9.284703	-18.91506
1448101366167	-2.250396728515625	1.382781982421875	9.342300415039063	-6.895468661680598	0	-10.940552	-19.92035	-28.845215	122.25726	-9.390469	-18.88205
1448101366207	-1.998077392578125	1.839813232421875	7.8712310791015625	-7.029377121125258	0	-10.769653	-18.730164	-32.32727	121.06357	-9.551183	-19.248562
1448101366247	-3.221588134765625	0.678192138671875	8.530593872070313	-7.359724875279377	0	-10.258484	-18.560791	-31.166077	120.85956	-8.822019	-19.709562
1448101366287	-2.726470947265625	0.856719970703125	7.4475250244140625	-7.444868845136779	0	-10.598755	-17.880249	-29.840088	120.678314	-8.300305	-20.228567
1448101366327	-3.871429443359375	-0.511993408203125	8.135452270507813	-7.869584404052121	0	-10.087585	-17.710876	-31.663513	120.626465	-8.166616	-20.454002
1448101366368	-4.118988037109375	-0.081146240234375	7.9545440673828125	-7.868970058540831	0	-9.916687	-16.860962	-31.829834	120.827545	-7.7343087	-21.095604
1448101366408	-3.759552001953125	0.171173095703125	8.242568969726563	-7.64924280577449	0	-8.041382	-18.051147	-31.663513	120.57703	-7.339869	-21.60604
1448101366448	-4.073760986328125	0.425872802734375	8.823379516601563	-7.531629377550599	0	-8.552551	-18.22052	-31.166077	119.899994	-6.79386	-22.212914
1448101366488	-2.226593017578125	1.299468994140625	12.034500122070313	-6.47382696562865	0	-9.916687	-16.860962	-30.50232	118.53546	-5.9931073	-22.604753
1448101366529	-2.162322998046875	1.442291259765625	13.055679321289063	-6.2943859428833475	0	-8.552551	-16.522217	-30.83496	117.21292	-5.4778123	-22.063633
1448101366569	-1.798126220703125	2.199249267578125	10.144485473632813	-6.559199728935804	0	-8.552551	-16.522217	-31.497192	115.95303	-6.774665	-21.892578
1448101366609	-2.431304931640625	1.204254150390625	10.211135864257813	-6.809253659817101	0	-9.063721	-16.351318	-33.65326	115.77411	-7.2705455	-22.046085
1448101366650	-3.276336669921875	0.782928466796875	8.861465454101563	-7.283099009119163	0	-8.041382	-15.672302	-31.663513	116.37573	-8.816965	-22.221697
1448101366690	-3.281097412109375	0.851959228515625	8.287796020507813	-7.386133549723512	0	-8.21228	-17.541504	-31.497192	116.83032	-10.143012	-22.740702
1448101366730	-3.583404541015625	0.897186279296875	7.6617584228515625	-7.479900955778162	0	-8.72345	-18.051147	-32.32727	117.09802	-10.820611	-22.894854
1448101366770	-3.228729248046875	1.816009521484375	6.9762115478515625	-7.4478944606651165	0	-8.894348	-18.901062	-32.16095	117.92456	-12.8309555	-22.795025
1448101366811	-3.326324462890625	2.501556396484375	6.9571685791015625	-7.330231587849798	0	-8.894348	-21.618652	-31.829834	118.6792	-13.696947	-22.882965
1448101366851	-4.630767822265625	2.070709228515625	7.1380767822265625	-7.666969614050931	0	-9.745789	-20.770264	-31.332397	120.019196	-13.763998	-23.647615
1448101366891	-5.290130615234375	1.685089111328125	7.2428131103515625	-7.899305684367167	0	-8.041382	-22.468567	-31.663513	121.59329	-13.27973	-24.53289
1448101366931	-5.342498779296875	1.625579833984375	8.009292602539063	-7.734795555264309	0	-7.8704834	-22.639465	-31.497192	122.87848	-12.443202	-25.397242
1448101366971	-5.609100341796875	1.404205322265625	8.237808227539063	-7.798388554955476	0	-7.359314	-21.44928	-31.332397	123.9169	-11.504609	-26.196838
1448101367012	-5.804290771484375	1.368499755859375	8.385391235351563	-7.819239886752639	0	-7.017517	-20.429993	-31.994629	124.51233	-10.923097	-26.609161
1448101367052	-5.432952880859375	1.473236083984375	8.597244262695313	-7.65310807621196	0	-6.335449	-23.149109	-31.663513	124.530334	-10.618262	-26.686687
1448101367092	-5.335357666015625	1.173309326171875	9.147109985351563	-7.573874838788299	0	-7.359314	-21.44928	-31.994629	124.28671	-10.401672	-26.673765
1448101367132	-4.226104736328125	1.720794677734375	8.863845825195313	-7.284986277281636	0	-5.3131104	-21.44928	-33.322144	123.64212	-10.673814	-26.38458
1448101367172	-4.028533935546875	1.594635009765625	9.101882934570313	-7.224356012924211	0	-7.359314	-19.74945	-32.32727	123.083496	-11.078114	-26.014437
1448101367212	-3.983306884765625	1.468475341796875	8.204483032226563	-7.421300964395069	0	-6.5063477	-20.939636	-31.829834	122.61395	-11.520531	-25.930363
1448101367253	-3.254913330078125	2.180206298828125	7.2261505126953125	-7.32638962959887	0	-6.677246	-21.78955	-33.322144	122.03302	-12.112229	-25.803923
1448101367293	-3.402496337890625	1.911224365234375	7.8141021728515625	-7.292076148413916	0	-7.8704834	-21.279907	-31.166077	121.93997	-12.2318535	-25.448133
1448101367333	-4.242767333984375	1.358978271484375	7.8379058837890625	-7.580815459374142	0	-6.5063477	-22.299194	-32.492065	122.342804	-11.876945	-25.187208
1448101367373	-3.928558349609375	1.642242431640625	8.271133422851563	-7.360211334051186	0	-8.381653	-21.78955	-30.999756	122.691864	-11.399844	-24.814028
1448101367413	-4.040435791015625	1.585113525390625	8.990005493164063	-7.250297352123763	0	-8.552551	-21.618652	-33.155823	123.16907	-10.753687	-24.320429
1448101367454	-4.661712646484375	1.282806396484375	9.680313110351563	-7.296339682751695	0	-8.21228	-21.958923	-33.155823	123.729675	-10.057254	-23.98861
1448101367494	-3.899993896484375	1.716033935546875	9.292312622070313	-7.140450592871282	0	-8.381653	-19.410706	-33.984375	124.02579	-9.824109	-23.564777
1448101367534	-3.604827880859375	2.070709228515625	8.413955688476563	-7.183655655159108	0	-8.21228	-21.279907	-34.150696	123.99304	-9.865737	-23.36796
1448101367574	-3.792877197265625	1.763641357421875	8.637710571289063	-7.235904621032411	0	-8.21228	-21.279907	-32.492065	124.25003	-9.795877	-23.205235
1448101367614	-3.978546142578125	1.535125732421875	8.142593383789063	-7.419305930633426	0	-7.699585	-19.74945	-33.322144	124.56366	-9.710995	-23.002632
1448101367655	-4.309417724609375	1.416107177734375	8.778152465820313	-7.380730687991351	0	-8.894348	-21.958923	-32.824707	124.76987	-9.542625	-22.713892
1448101367695	-4.161834716796875	1.308990478515625	8.882888793945313	-7.350985096220487	0	-8.381653	-21.44928	-33.65326	124.914154	-9.406359	-22.446667
1448101367735	-4.240386962890625	1.025726318359375	9.304214477539063	-7.338897863799641	0	-7.1884155	-20.26062	-33.155823	124.93442	-9.288382	-22.193121
1448101367775	-3.683380126953125	1.194732666015625	8.682937622070313	-7.317766907739128	0	-8.552551	-21.618652	-33.48694	124.74121	-9.366608	-22.095428
1448101367815	-3.252532958984375	1.311370849609375	8.404434204101563	-7.264303381836305	0	-7.8704834	-20.26062	-34.150696	124.371826	-9.518683	-22.010767
1448101367856	-3.273956298828125	1.068572998046875	8.801956176757813	-7.238220573985112	0	-8.381653	-19.74945	-34.317017	124.03793	-9.596152	-21.739225
1448101367896	-3.040679931640625	1.299468994140625	8.649612426757813	-7.178216183039886	0	-8.72345	-19.410706	-31.994629	123.72443	-9.67609	-21.407724
1448101367936	-2.978790283203125	1.580352783203125	8.482986450195313	-7.144918398043201	0	-8.894348	-21.279907	-33.81958	123.49243	-9.660998	-21.047789
1448101367976	-2.969268798828125	1.594635009765625	8.692459106445313	-7.101452071072117	0	-8.72345	-20.089722	-32.658386	123.35565	-9.476475	-20.775436
1448101368016	-3.043060302734375	1.394683837890625	8.775772094726563	-7.136881732114263	0	-8.552551	-20.939636	-32.824707	123.36777	-9.204952	-20.457954
1448101368057	-3.140655517578125	1.456573486328125	8.851943969726563	-7.129313698821778	0	-8.894348	-19.92035	-32.492065	123.441986	-8.999293	-20.080137
1448101368097	-3.245391845703125	1.475616455078125	9.104263305664063	-7.09837402806947	0	-9.576416	-19.92035	-33.81958	123.53244	-8.745256	-19.861706
1448101368137	-3.633392333984375	1.206634521484375	8.906692504882813	-7.2610284153882425	0	-9.576416	-18.901062	-34.48181	123.612	-8.516386	-19.77635
1448101368177	-3.316802978515625	1.149505615234375	9.163772583007813	-7.16151489367042	0	-8.552551	-20.26062	-34.150696	123.60687	-8.298276	-19.672592
1448101368217	-3.164459228515625	1.080474853515625	9.135208129882813	-7.1511859541527585	0	-9.405518	-19.74945	-34.317017	123.711975	-7.950796	-19.633614
1448101368258	-2.959747314453125	1.180450439453125	9.075698852539063	-7.105414708773376	0	-8.041382	-19.070435	-34.648132	123.67999	-7.72692	-19.512712
1448101368298	-2.802642822265625	1.285186767578125	9.135208129882813	-7.046572450283274	0	-7.8704834	-19.239807	-33.81958	123.69699	-7.577729	-19.262877
1448101368338	-2.619354248046875	1.337554931640625	9.220901489257813	-6.988958757248971	0	-8.552551	-18.560791	-33.81958	123.75256	-7.5090885	-19.000689
1448101368378	-2.724090576171875	1.532745361328125	9.347061157226563	-6.950778587099183	0	-9.234619	-18.901062	-34.150696	123.82364	-7.536	-18.721045
1448101368419	-2.971649169921875	1.249481201171875	8.954299926757813	-7.11733765541407	0	-9.916687	-18.22052	-34.150696	124.135254	-7.693168	-18.33622
1448101368459	-3.207305908203125	1.128082275390625	9.197097778320313	-7.138665565740451	0	-9.234619	-18.901062	-33.155823	124.37488	-7.6678405	-18.188868
1448101368500	-3.390594482421875	1.023345947265625	9.116165161132813	-7.208732292441248	0	-8.552551	-18.22052	-34.48181	124.514465	-7.627874	-18.150436
1448101368540	-3.159698486328125	1.109039306640625	9.189956665039063	-7.134653614805947	0	-8.552551	-17.880249	-33.155823	124.65152	-7.5498166	-18.091082
1448101368580	-3.200164794921875	1.049530029296875	9.156631469726563	-7.159715660989026	0	-8.894348	-19.239807	-33.48694	124.65228	-7.5950217	-17.97037
1448101368621	-3.000213623046875	1.125701904296875	9.156631469726563	-7.10805969995322	0	-10.598755	-19.580078	-32.824707	124.65216	-7.6052704	-17.950998
1448101368661	-2.812164306640625	1.132843017578125	9.068557739257813	-7.088284997982148	0	-7.359314	-18.391418	-32.658386	124.52875	-7.7725706	-17.745234
1448101368701	-2.774078369140625	1.156646728515625	8.978103637695313	-7.093544158873556	0	-9.916687	-19.92035	-33.155823	124.5401	-7.8309145	-17.6224
1448101368741	-2.562225341796875	1.425628662109375	8.954299926757813	-7.010584397920799	0	-9.916687	-19.92035	-32.824707	124.49194	-8.064021	-17.133564
1448101368782	-2.614593505859375	1.518463134765625	8.947158813476563	-7.004631327373053	0	-11.621094	-18.901062	-32.492065	124.47882	-8.092053	-16.99993
1448101368822	-2.809783935546875	1.280426025390625	9.394668579101563	-7.002083879713773	0	-10.258484	-20.599365	-32.824707	124.542114	-8.109758	-16.777023
1448101368862	-2.859771728515625	1.292327880859375	9.237564086914063	-7.037101807319995	0	-10.769653	-18.391418	-30.999756	124.72391	-8.10456	-16.688549
1448101368902	-2.785980224609375	1.342315673828125	9.049514770507813	-7.048729404825787	0	-11.621094	-18.560791	-31.497192	124.71283	-8.2093315	-16.699215
1448101368943	-2.728851318359375	1.328033447265625	8.878128051757813	-7.072132925657348	0	-10.940552	-19.580078	-33.48694	124.67279	-8.331633	-16.681522
1448101368983	-2.871673583984375	1.099517822265625	9.223281860351563	-7.076924909694779	0	-10.258484	-18.560791	-31.497192	124.69321	-8.308151	-16.705715
1448101369024	-2.640777587890625	1.387542724609375	8.820999145507813	-7.055643024286537	0	-10.258484	-18.901062	-33.48694	124.75101	-8.28027	-16.705732
1448101369064	-2.655059814453125	1.397064208984375	8.887649536132813	-7.044417180079482	0	-9.234619	-19.580078	-33.48694	124.712524	-8.288802	-16.646332
1448101369104	-2.621734619140625	1.447052001953125	9.099502563476563	-6.991494327686958	0	-9.405518	-17.710876	-33.322144	124.70953	-8.24191	-16.59555
1448101369144	-2.755035400390625	1.382781982421875	9.413711547851563	-6.970853514525176	0	-10.087585	-19.070435	-31.332397	124.67581	-8.21244	-16.44612
1448101369184	-2.671722412109375	1.437530517578125	9.230422973632813	-6.97883921112454	0	-11.791992	-17.710876	-32.658386	124.627014	-8.264627	-16.353064
1448101369225	-2.824066162109375	1.270904541015625	9.337539672851563	-7.016550170380856	0	-10.769653	-20.429993	-32.989502	124.59766	-8.322253	-16.355114
1448101369265	-2.693145751953125	1.211395263671875	9.218521118164063	-7.025094898461839	0	-9.916687	-20.599365	-33.155823	124.660645	-8.384493	-16.356213
1448101369305	-2.664581298828125	1.313751220703125	8.866226196289063	-7.065177719838831	0	-11.451721	-19.74945	-34.979248	124.68927	-8.486843	-16.27181
1448101369347	-2.693145751953125	1.187591552734375	9.025711059570313	-7.064309559446417	0	-10.258484	-20.939636	-32.16095	124.657104	-8.591944	-16.092386
1448101369387	-2.536041259765625	1.354217529296875	8.823379516601563	-7.042263590274727	0	-11.109924	-18.730164	-31.994629	124.68616	-8.8090925	-15.688944
1448101369427	-2.452728271484375	1.308990478515625	9.423233032226563	-6.929188795591111	0	-11.280823	-20.939636	-32.492065	124.65585	-9.076433	-14.917895
1448101369468	-2.359893798828125	1.256622314453125	9.047134399414063	-6.988114074003727	0	-11.962891	-20.26062	-31.497192	124.60608	-9.714948	-13.86994
1448101369508	-1.731475830078125	1.792205810546875	9.713638305664063	-6.680201387197593	0	-12.47406	-20.770264	-31.663513	124.46295	-10.608579	-12.313557
1448101369548	-0.993560791015625	2.334930419921875	9.985000610351563	-6.441132686348325	0	-13.838196	-20.429993	-30.999756	124.16284	-11.62197	-10.786687
1448101369588	-0.181854248046875	3.122833251953125	10.123062133789063	-6.19217872714105	0	-14.179993	-20.429993	-30.337524	123.76007	-12.882811	-9.468367
1448101369629	0.384674072265625	3.629852294921875	10.472976684570313	-6.0003547304781035	0	-17.077637	-22.299194	-30.171204	123.74829	-14.484949	-7.9049954
1448101369669	-0.010467529296875	3.570343017578125	9.873123168945313	-6.141494454831271	0	-17.590332	-23.149109	-29.342651	124.38577	-15.844363	-7.153126
1448101369709	-0.660308837890625	3.410858154296875	9.599380493164063	-6.252279534745556	0	-18.78357	-23.658752	-29.17633	125.50766	-16.817493	-7.0288935
1448101369749	-0.731719970703125	3.194244384765625	9.642227172851563	-6.327411648255579	0	-17.930603	-24.508667	-27.020264	126.98657	-17.814718	-6.82727
1448101369790	-1.153045654296875	3.060943603515625	9.777908325195313	-6.3881491411438915	0	-18.441772	-25.357056	-26.855469	128.99908	-19.06092	-6.4276342
1448101369830	-2.752655029296875	2.970489501953125	8.687698364257813	-6.786704929744816	0	-19.12384	-28.756714	-23.869324	131.26337	-20.905972	-5.6388173
1448101369870	-2.095672607421875	3.063323974609375	9.589859008789063	-6.557367725142358	0	-19.465637	-29.43573	-23.207092	132.91403	-22.625542	-5.045375
1448101369910	-0.055694580078125	4.946197509765625	8.118789672851563	-6.1997603026279275	0	-17.930603	-30.285645	-21.051025	134.84839	-26.585274	-3.4635265
1448101369951	-1.550567626953125	4.098785400390625	7.9997711181640625	-6.558833245505219	0	-18.2724	-32.32422	-19.06128	137.59763	-30.019264	-1.7579267
1448101369991	-1.671966552734375	4.831939697265625	9.942153930664063	-6.186913953504349	0	-20.147705	-33.85315	-17.900085	138.95367	-31.568819	-0.9514115
1448101370031	0.639373779296875	5.736480712890625	8.954299926757813	-5.891225890295371	0	-18.2724	-35.72235	-16.07666	140.96484	-35.04525	0.30390042
1448101370071	0.175201416015625	6.481536865234375	5.7907867431640625	-6.278494981096216	0	-18.101501	-36.231995	-12.5946045	143.50076	-39.02055	1.8175458
1448101370111	-0.200897216796875	6.122100830078125	8.268753051757813	-6.039644111614915	0	-20.658875	-37.08191	-8.4487915	147.0549	-43.051704	3.47618
1448101370152	0.601287841796875	7.431304931640625	5.7812652587890625	-6.089900115394496	0	-19.12384	-39.970398	-4.3029785	150.96497	-48.62913	4.9644732
1448101370192	0.091888427734375	7.319427490234375	4.5910797119140625	-6.34215262272858	0	-18.61267	-40.141296	-4.1366577	152.5058	-50.576244	5.616912
1448101370233	0.127593994140625	7.033782958984375	5.3980255126953125	-6.262675273680278	0	-18.441772	-39.631653	1.335144	156.65143	-54.84048	7.7742915
1448101370273	1.505828857421875	7.686004638671875	3.7698516845703125	-6.206365954737933	0	-18.61267	-40.141296	3.8223267	158.76776	-56.885216	9.21957
1448101370314	1.382049560546875	7.264678955078125	4.7886505126953125	-6.141169734898737	0	-19.294739	-41.8396	4.484558	161.8935	-58.753223	11.079153
1448101370354	1.777191162109375	7.233734130859375	5.0504913330078125	-6.0567444526520005	0	-18.441772	-41.329956	4.9819946	165.17938	-60.081226	13.097429
1448101370394	2.743621826171875	7.393218994140625	5.4123077392578125	-5.863359129907188	0	-18.78357	-41.329956	6.640625	168.42499	-61.66165	15.286981
1448101370436	3.160186767578125	7.590789794921875	4.9886016845703125	-5.839286268131758	0	-17.930603	-41.500854	8.465576	169.68256	-62.53273	16.135445
1448101370476	4.121856689453125	8.116851806640625	4.9600372314453125	-5.659462948064163	0	-19.12384	-40.989685	10.620117	172.41748	-65.200935	17.665768
1448101370518	2.043792724609375	7.486053466796875	3.4651641845703125	-6.201740727299252	0	-19.976807	-40.141296	12.445068	174.31207	-67.99301	18.261642
1448101370558	2.988800048828125	8.833343505859375	2.2059478759765625	-6.061190619082599	0	-17.759705	-40.31067	13.604736	175.50372	-70.95404	18.546392
1448101370598	2.681732177734375	8.254913330078125	1.5204010009765625	-6.277145862489631	0	-17.419434	-40.989685	15.263367	177.13318	-73.99476	19.296701
1448101370638	3.564849853515625	8.554840087890625	1.3323516845703125	-6.138897500344859	0	-18.61267	-39.460754	17.088318	177.9361	-75.912704	20.185673
1448101370678	3.536285400390625	8.669097900390625	1.6608428955078125	-6.082861798100051	0	-16.908264	-40.141296	20.404053	178.1283	-77.15804	20.925545
1448101370719	3.910003662109375	8.614349365234375	1.4585113525390625	-6.0672331578885155	0	-16.737366	-38.272095	20.237732	178.24646	-77.75339	21.499474
1448101370759	4.002838134765625	8.909515380859375	2.1035919189453125	-5.931558653824412	0	-18.101501	-39.631653	19.906616	177.7121	-77.46065	21.598558
1448101370800	3.936187744140625	8.921417236328125	2.0131378173828125	-5.950339791215903	0	-17.248535	-38.101196	18.414307	174.89417	-75.570854	21.380867
1448101370840	4.029022216796875	8.864288330078125	2.6677398681640625	-5.861850272192282	0	-19.294739	-37.76245	17.419434	173.89246	-75.04924	21.212957
1448101370880	3.060211181640625	8.545318603515625	1.2252349853515625	-6.224594308978863	0	-18.61267	-38.78174	18.414307	173.30322	-75.09666	20.912094
1448101370920	3.386322021484375	8.800018310546875	2.0250396728515625	-6.036801596254408	0	-19.465637	-38.95111	17.585754	172.58215	-74.86091	20.54573
1448101370961	2.926910400390625	8.614349365234375	1.9845733642578125	-6.128851622271744	0	-19.12384	-38.95111	18.580627	172.09015	-74.69014	20.292028
1448101371001	3.541046142578125	8.780975341796875	2.6796417236328125	-5.933401940513781	0	-19.63501	-40.141296	16.755676	171.34851	-74.21988	20.108885
1448101371041	3.126861572265625	8.516754150390625	1.9155426025390625	-6.124323757620116	0	-19.63501	-38.78174	15.760803	170.289	-73.672005	19.930613
1448101371082	3.162567138671875	8.783355712890625	1.9250640869140625	-6.0822226106265	0	-17.930603	-38.101196	17.088318	169.7956	-73.41828	19.91981
1448101371122	3.162567138671875	8.783355712890625	1.9250640869140625	-6.0822226106265	0	-17.930603	-38.101196	17.088318	169.7956	-73.41828	19.91981
1448101371162	3.445831298828125	8.500091552734375	2.4773101806640625	-6.008806820767281	0	-21.170044	-38.272095	14.599609	167.96002	-71.95853	20.008348
1448101371203	2.653167724609375	8.043060302734375	2.9367218017578125	-6.114317531241473	0	-20.999146	-39.120483	16.42456	167.11023	-71.246346	20.013641
1448101371243	2.962615966796875	8.516754150390625	3.0605010986328125	-5.993481693964857	0	-20.487976	-38.61084	14.932251	166.72943	-70.95051	20.062891
1448101371283	4.067108154296875	9.166595458984375	2.5558624267578125	-5.832991307634952	0	-19.976807	-38.441467	15.263367	166.21802	-70.76397	20.38152
1448101371324	3.157806396484375	8.245391845703125	2.9272003173828125	-6.021048711274629	0	-19.976807	-38.101196	15.097046	165.99634	-70.42414	20.173838
1448101371364	3.219696044921875	8.338226318359375	3.1604766845703125	-5.970143425522509	0	-20.658875	-40.141296	14.102173	165.70508	-69.972	20.015917
1448101371404	3.207794189453125	8.614349365234375	3.1628570556640625	-5.935553550995342	0	-20.147705	-38.95111	12.942505	164.72778	-68.72195	19.642897
1448101371444	3.210174560546875	8.621490478515625	3.4104156494140625	-5.9024892576571855	0	-21.681213	-39.120483	12.776184	164.41248	-68.2573	19.537258
1448101371484	3.395843505859375	8.942840576171875	3.2628326416015625	-5.8567244673239625	0	-20.658875	-38.441467	14.434814	164.26685	-68.1892	19.556736
1448101371525	4.126617431640625	9.556976318359375	2.9914703369140625	-5.7394433389327055	0	-21.852112	-40.31067	14.599609	163.99658	-68.051895	19.72141
1448101371565	3.502960205078125	8.809539794921875	3.3913726806640625	-5.843788790686078	0	-21.852112	-38.272095	12.278748	164.28967	-68.1783	19.778852
1448101371605	3.652923583984375	9.309417724609375	3.1866607666015625	-5.788017902394513	0	-19.805908	-40.65094	13.937378	164.63977	-68.478516	19.714808
1448101371645	3.314910888671875	8.930938720703125	3.3485260009765625	-5.857628537663058	0	-19.976807	-39.801025	14.102173	164.94891	-68.662315	19.312996
1448101371686	3.029266357421875	8.766693115234375	3.3842315673828125	-5.9104235358188575	0	-21.340942	-38.78174	12.776184	165.67078	-69.05918	18.995174
1448101371727	3.162567138671875	8.702423095703125	3.7531890869140625	-5.854615774159889	0	-20.658875	-39.460754	12.112427	165.98615	-69.25342	18.81194
1448101371767	2.891204833984375	8.683380126953125	3.2818756103515625	-5.952192059564911	0	-20.487976	-40.989685	14.599609	166.79065	-69.981094	18.245766
1448101371808	2.622222900390625	8.583404541015625	3.3889923095703125	-5.972005259836568	0	-20.147705	-40.989685	12.942505	166.92157	-70.17747	18.032385
1448101371848	2.829315185546875	8.683380126953125	3.4127960205078125	-5.943247656114211	0	-18.952942	-40.820313	13.771057	167.05286	-70.695465	17.290136
1448101371888	2.681732177734375	8.519134521484375	3.1461944580078125	-6.0188485354465815	0	-18.61267	-40.48004	14.76593	167.29816	-71.07771	16.904976
1448101371928	2.434173583984375	8.445343017578125	3.1152496337890625	-6.065642069823349	0	-18.441772	-42.010498	15.596008	167.31213	-71.37645	16.467455
1448101371969	2.355621337890625	8.285858154296875	3.0962066650390625	-6.100161526582889	0	-18.952942	-39.801025	15.097046	167.16895	-71.597725	16.142204
1448101372009	2.422271728515625	8.257293701171875	2.9248199462890625	-6.118187688994549	0	-17.759705	-41.329956	14.268494	166.69025	-71.664085	15.87931
1448101372049	2.162811279296875	7.962127685546875	2.8938751220703125	-6.198440623404495	0	-18.441772	-39.29138	14.268494	166.1156	-71.58996	15.695635
1448101372089	2.334197998046875	8.114471435546875	2.4392242431640625	-6.21662873594261	0	-17.930603	-39.120483	14.76593	165.591	-71.67411	15.781682
1448101372130	2.660308837890625	8.466766357421875	2.3083038330078125	-6.141169734898737	0	-18.101501	-40.65094	15.927124	164.92358	-71.56827	16.01838
1448101372171	2.715057373046875	8.412017822265625	2.4535064697265625	-6.121415925216345	0	-19.12384	-41.329956	13.604736	164.22278	-71.21765	16.300919
1448101372211	3.348236083984375	8.631011962890625	2.2345123291015625	-6.036485893507125	0	-19.976807	-40.820313	14.102173	163.8722	-71.25468	16.838146
1448101372251	3.348236083984375	8.652435302734375	2.4939727783203125	-5.999416767603762	0	-19.294739	-40.48004	15.4296875	163.45221	-70.835045	17.293068
1448101372291	3.274444580078125	8.764312744140625	2.4725494384765625	-5.99722908570256	0	-20.487976	-39.29138	13.604736	163.08301	-70.34509	17.698023
1448101372332	3.576751708984375	9.378448486328125	2.2749786376953125	-5.904013827599982	0	-20.317078	-39.801025	14.102173	162.90656	-70.063705	18.157618
1448101372372	3.469635009765625	9.242767333984375	2.9200592041015625	-5.8528092179970415	0	-20.147705	-40.31067	12.942505	162.9762	-69.65778	18.539787
1448101372412	3.674346923828125	9.485565185546875	2.7581939697265625	-5.81684987259834	0	-20.487976	-38.95111	12.942505	163.2807	-69.37134	18.80136
1448101372452	3.662445068359375	9.414154052734375	3.7912750244140625	-5.699548241681411	0	-20.658875	-40.48004	15.4296875	164.01135	-69.26592	18.907726
1448101372492	2.931671142578125	8.692901611328125	4.3839874267578125	-5.80553012049726	0	-19.465637	-39.970398	14.599609	164.57074	-68.83118	18.613487
1448101372533	2.200897216796875	7.964508056640625	4.0840606689453125	-6.031753520686859	0	-19.805908	-38.95111	14.268494	164.78748	-68.364655	18.11881
1448101372573	2.041412353515625	7.812164306640625	3.2271270751953125	-6.189874445668905	0	-19.976807	-39.460754	13.1073	164.38458	-67.52958	17.573055
1448101372613	1.843841552734375	7.343231201171875	4.5125274658203125	-6.10530290037039	0	-19.63501	-40.820313	13.1073	162.0163	-64.40554	16.307621
1448101372654	1.532012939453125	7.369415283203125	5.0219268798828125	-6.075198774918587	0	-19.63501	-40.48004	11.781311	159.14398	-60.98122	14.731184
1448101372694	2.929290771484375	9.045196533203125	2.8843536376953125	-6.181985173345785	0	-21.340942	-40.820313	7.470703	158.51526	-60.882114	14.719678
1448101372734	4.076629638671875	10.083038330078125	2.9629058837890625	-5.668656808928008	0	-20.147705	-40.65094	8.963013	159.26904	-62.158638	15.796961
1448101372775	4.657440185546875	10.756683349609375	7.0119171142578125	-5.070985926892472	0	-19.976807	-39.801025	7.1380615	160.0376	-62.277863	16.45933
1448101372815	4.231353759765625	10.249664306640625	6.0074005126953125	-5.280186565601683	0	-19.465637	-42.010498	8.299255	161.33801	-63.613247	16.252096
1448101372855	3.276824951171875	9.035675048828125	5.1861724853515625	-5.6234585386875136	0	-18.952942	-41.500854	10.122681	161.77563	-64.26751	15.889157
1448101372895	0.584625244140625	6.495819091796875	3.2199859619140625	-6.597171655597906	0	-19.805908	-41.329956	11.61499	161.96014	-65.28778	14.737133
1448101372936	0.482269287109375	5.610321044921875	3.3032989501953125	-6.7413285141073445	0	-19.465637	-40.65094	9.625244	160.31757	-66.05155	12.572624
1448101372976	-0.098541259765625	5.158050537109375	3.3080596923828125	-6.913924945707423	0	-19.465637	-41.329956	10.620117	159.48749	-65.9253	12.131591
1448101373016	-0.086639404296875	5.281829833984375	2.3440093994140625	-7.060839662843538	0	-17.419434	-41.670227	9.625244	157.06055	-65.425476	11.902236
1448101373057	3.176849365234375	8.288238525390625	3.4032745361328125	-5.9506484408180365	0	-19.63501	-41.8396	10.786438	154.74683	-64.12514	13.053929
1448101373097	4.821685791015625	10.404388427734375	4.2721099853515625	-5.390925170021963	0	-19.12384	-41.329956	9.294128	153.83405	-63.50068	13.924993
1448101373137	7.116363525390625	13.267974853515625	4.2149810791015625	-4.84682989867395	0	-20.829773	-40.989685	8.299255	153.08057	-63.499825	15.943929
1448101373177	5.300140380859375	11.561248779296875	4.6624908447265625	-5.167216419729576	0	-22.363281	-39.801025	9.127808	153.70563	-64.30931	15.735295
1448101373218	2.746002197265625	8.926177978515625	3.2818756103515625	-5.939552575137872	0	-20.829773	-40.989685	9.294128	154.62671	-65.533646	14.38184
1448101373258	0.313262939453125	7.040924072265625	2.4963531494140625	-6.668042981060752	0	-20.658875	-39.801025	11.117554	155.57928	-66.89888	12.712402
1448101373298	-0.536529541015625	5.386566162109375	2.0321807861328125	-7.183201935041774	0	-19.294739	-41.160583	10.122681	156.63654	-67.933426	11.591056
1448101373338	-1.383941650390625	4.934295654296875	2.3297271728515625	-7.381712131095993	0	-16.908264	-42.17987	12.112427	156.80774	-67.85384	10.991374
1448101373378	0.344207763671875	5.843597412109375	3.7317657470703125	-6.65706496719729	0	-19.805908	-42.010498	10.952759	156.37665	-66.65886	11.368242
1448101373418	1.184478759765625	6.807647705078125	5.2456817626953125	-6.168220109507658	0	-18.952942	-42.17987	11.117554	155.59998	-64.61342	12.371318
1448101373459	2.960235595703125	8.990447998046875	5.3670806884765625	-5.645138203680518	0	-20.147705	-41.329956	7.9681396	154.27399	-62.458252	13.455
1448101373499	4.947845458984375	11.142303466796875	5.4480133056640625	-5.16567743746512	0	-19.805908	-38.61084	9.294128	153.11676	-60.94499	14.643119
1448101373539	5.550079345703125	11.825469970703125	5.8669586181640625	-4.985551573094259	0	-21.681213	-39.460754	7.1380615	152.38782	-59.974697	15.227831
1448101373579	3.910003662109375	10.271087646484375	5.0385894775390625	-5.422574362970397	0	-21.681213	-39.120483	6.1431885	152.1922	-59.86015	14.883495
1448101373619	2.336578369140625	8.369171142578125	3.6246490478515625	-6.021048711274629	0	-21.852112	-38.272095	6.3095093	152.44543	-60.619976	14.061163
1448101373660	1.627227783203125	7.397979736328125	3.2390289306640625	-6.304566811951189	0	-22.53418	-40.65094	5.9783936	153.01318	-61.541573	13.370325
1448101373700	0.665557861328125	6.357757568359375	3.6770172119140625	-6.535463707883518	0	-20.147705	-40.65094	6.9732666	153.33868	-61.705673	12.689568
1448101373740	-0.186614990234375	5.650787353515625	4.0554962158203125	-6.721203983424241	0	-20.147705	-40.65094	6.9732666	153.13043	-61.08727	12.058587
1448101373781	0.946441650390625	6.524383544921875	5.0528717041015625	-6.267716433193363	0	-19.294739	-41.8396	6.806946	152.92456	-60.26471	12.286044
1448101373821	1.536773681640625	6.943328857421875	6.4929962158203125	-5.937091148106415	0	-19.63501	-41.500854	5.480957	152.04791	-58.52175	12.590688
1448101373861	1.170196533203125	7.038543701171875	6.9881134033203125	-5.908285795411648	0	-21.681213	-41.500854	4.484558	150.14374	-56.107548	12.358481
1448101373901	3.926666259765625	9.321319580078125	5.7598419189453125	-5.446803243408121	0	-23.216248	-40.989685	3.6560059	148.46887	-55.27297	13.025037
1448101373941	5.807159423828125	11.111358642578125	3.6103668212890625	-5.275718751534607	0	-22.53418	-39.970398	3.3248901	147.30927	-55.8991	14.017662
1448101373983	6.992584228515625	11.701690673828125	1.3228302001953125	-5.332552045123	0	-24.240112	-40.31067	2.9922485	146.65277	-57.018867	14.5314245
1448101374023	5.054962158203125	9.768829345703125	1.9369659423828125	-5.712609593771736	0	-23.216248	-39.631653	3.6560059	148.30716	-58.556416	14.654871
1448101374065	2.672210693359375	7.588409423828125	4.5291900634765625	-5.960847774405628	0	-22.53418	-38.95111	5.314636	151.37808	-59.17437	14.098171
1448101374105	0.720306396484375	6.176849365234375	5.9478912353515625	-6.222601255989295	0	-22.02301	-40.820313	6.806946	154.54895	-59.260143	13.382107
1448101374146	-0.036651611328125	5.669830322265625	6.8119659423828125	-6.27883234136369	0	-19.976807	-40.48004	6.1431885	157.047	-59.005783	12.893173
1448101374186	-1.464874267578125	4.589141845703125	8.102127075195313	-6.456018758883719	0	-18.78357	-42.010498	5.9783936	158.52826	-57.555847	12.490411
1448101374226	-0.612701416015625	4.760528564453125	8.002151489257813	-6.424904077896667	0	-17.077637	-39.970398	5.9783936	158.02625	-56.749146	12.311135
1448101374267	0.041900634765625	5.531768798828125	7.6212921142578125	-6.174113035418907	0	-17.930603	-42.17987	3.8223267	155.86682	-54.84434	12.029651
1448101374307	1.622467041015625	6.431549072265625	7.0309600830078125	-5.922661767189253	0	-19.12384	-39.970398	3.3248901	151.45041	-52.0678	11.788697
1448101374347	5.145416259765625	9.285614013671875	5.0671539306640625	-5.390925170021963	0	-22.02301	-39.460754	2.1636963	148.10077	-51.197186	12.094001
1448101374387	8.173248291015625	11.513641357421875	3.5294342041015625	-4.988267938742799	0	-22.53418	-39.29138	0.6713867	145.53564	-51.72186	12.782126
1448101374427	7.994720458984375	11.946868896484375	0.6610870361328125	-5.26758288264942	0	-23.387146	-38.78174	1.1688232	144.8613	-53.446877	13.352493
1448101374467	4.264678955078125	9.066619873046875	1.6203765869140625	-5.939860363686344	0	-23.898315	-39.29138	2.9922485	146.31442	-54.674034	13.020582
1448101374508	2.498443603515625	7.771697998046875	5.1171417236328125	-5.883937214952665	0	-21.852112	-39.970398	2.6611328	149.34363	-54.85733	12.361981
1448101374548	0.144256591796875	6.255401611328125	7.8997955322265625	-6.025138148367544	0	-21.340942	-40.820313	3.8223267	152.93982	-54.572495	11.82635
1448101374588	-0.986419677734375	5.441314697265625	9.168533325195313	-6.115607132934748	0	-20.147705	-42.010498	3.3248901	155.77722	-54.012085	11.204222
1448101374628	-2.464630126953125	4.339202880859375	10.101638793945313	-6.345933655514943	0	-19.63501	-40.48004	2.8274536	157.02881	-53.305946	10.441077
1448101374668	-1.821929931640625	4.629608154296875	8.461563110351563	-6.449630930585178	0	-18.101501	-42.689514	1.6662598	155.77277	-52.501854	9.425904
1448101374709	1.701019287109375	7.288482666015625	6.2025909423828125	-5.908896458745507	0	-17.077637	-41.329956	3.3248901	154.492	-52.344517	9.174765
1448101374749	4.926422119140625	9.606964111328125	3.9221954345703125	-5.510603996156529	0	-18.441772	-41.329956	1.6662598	150.86377	-53.662754	9.585915
1448101374789	6.585540771484375	11.373199462890625	4.4006500244140625	-5.0780283066882586	0	-19.465637	-40.31067	3.6560059	149.02356	-54.569374	9.267984
1448101374829	4.631256103515625	10.363922119140625	4.2340240478515625	-5.421488568062629	0	-19.465637	-40.989685	2.6611328	148.42242	-54.79995	8.706411
1448101374869	1.998565673828125	8.352508544921875	3.3770904541015625	-6.1014462011879225	0	-19.294739	-41.500854	1.8325806	148.42725	-55.800014	6.2450247
1448101374910	-0.615081787109375	6.029266357421875	3.5103912353515625	-6.8191971470750605	0	-19.465637	-39.970398	1.6662598	149.76941	-56.455006	4.947475
1448101374950	-2.621734619140625	5.086639404296875	4.3887481689453125	-7.188651766344192	0	-19.294739	-43.53943	0.5050659	151.08487	-56.51322	3.9054158
1448101374990	-3.071624755859375	4.731964111328125	3.1200103759765625	-7.6201989088355	0	-16.395569	-42.689514	1.9973755	150.72406	-55.57299	3.0806015
1448101375030	-1.871917724609375	5.236602783203125	1.3442535400390625	-7.636591106324028	0	-15.884399	-43.199158	1.8325806	148.71811	-52.743595	1.8635625
1448101375071	-3.321563720703125	4.010711669921875	6.0883331298828125	-7.203240424547242	0	-16.737366	-42.349243	-2.3132324	145.76636	-46.212803	-0.51337755
1448101375111	-0.286590576171875	6.236358642578125	15.912124633789063	-5.1309297057859915	0	-15.544128	-42.17987	-5.795288	143.69116	-38.899063	-2.2727556
1448101375151	4.505096435546875	8.381072998046875	12.370132446289063	-4.781035168074855	0	-17.248535	-39.460754	-9.443665	143.159	-36.5611	-1.3042502
1448101375191	2.381805419921875	6.379180908203125	10.058792114257813	-5.4684231430262304	0	-16.908264	-37.42218	-11.433411	142.22491	-34.072025	-3.4387352
1448101375231	0.303741455078125	4.448699951171875	7.3047027587890625	-6.334260131116329	0	-15.37323	-37.252808	-13.920593	141.82947	-31.775291	-7.089514
1448101375272	-3.273956298828125	1.587493896484375	6.4810943603515625	-7.616935195056601	0	-12.133789	-37.08191	-14.086914	143.06134	-31.3187	-8.554931
1448101375312	-2.388458251953125	3.372772216796875	5.7622222900390625	-7.209190472243005	0	-11.109924	-36.062622	-17.071533	144.21735	-31.290827	-8.62413
1448101375352	-3.392974853515625	3.213287353515625	6.6334381103515625	-7.266176686780023	0	-10.940552	-37.591553	-13.920593	144.77435	-30.667017	-7.6430964
1448101375392	-1.000701904296875	4.332061767578125	10.699111938476563	-6.0608728607441495	0	-13.497925	-37.76245	-17.73529	144.27643	-29.217892	-5.788966
1448101375433	0.653656005859375	5.748382568359375	9.430374145507813	-5.827603553692644	0	-15.202332	-36.74164	-17.071533	142.20657	-27.53963	-5.5427094
1448101375473	-1.731475830078125	5.819793701171875	9.537490844726563	-6.115284690273626	0	-14.179993	-35.383606	-18.397522	140.32263	-26.411707	-6.492298
1448101375513	-0.991180419921875	5.162811279296875	11.996414184570313	-5.785649236319187	0	-13.838196	-34.024048	-19.06128	139.42334	-27.00192	-5.648543
1448101375553	-0.879302978515625	4.582000732421875	7.4689483642578125	-6.4641987496765045	0	-13.838196	-35.383606	-18.066406	139.026	-29.63702	-4.1604223
1448101375594	-0.358001708984375	4.767669677734375	9.351821899414063	-6.096951786467608	0	-17.248535	-36.402893	-16.740417	137.34515	-31.345472	-3.60295
1448101375634	-0.998321533203125	4.755767822265625	8.925735473632813	-6.245254501077532	0	-16.226196	-35.383606	-17.071533	136.46332	-33.80606	-2.22312
1448101375674	2.027130126953125	6.338714599609375	5.0124053955078125	-6.148970969867185	0	-20.487976	-36.231995	-15.246582	136.29291	-36.915043	0.56425184
1448101375714	-0.081878662109375	6.957611083984375	9.070938110351563	-5.813271747498515	0	-18.78357	-36.231995	-13.920593	135.90582	-38.73225	1.4655385
1448101375755	-0.522247314453125	6.790985107421875	5.9883575439453125	-6.3055865271733005	0	-19.294739	-35.72235	-13.092041	135.15546	-40.301197	1.1867746
1448101375795	-0.036651611328125	7.664581298828125	7.3665924072265625	-5.934323912899989	0	-19.465637	-36.912537	-10.272217	135.02582	-42.19199	1.8134995
1448101375835	-2.081390380859375	7.688385009765625	7.1499786376953125	-6.234909466568867	0	-19.976807	-37.76245	-9.77478	134.8139	-44.23669	1.442796
1448101375875	-1.095916748046875	6.664825439453125	6.4810943603515625	-6.335288568889588	0	-19.294739	-38.101196	-10.107422	134.35648	-46.630478	1.2012452
1448101375915	-0.893585205078125	6.700531005859375	6.0335845947265625	-6.365592822514342	0	-20.317078	-38.441467	-9.77478	132.60516	-49.82622	1.383936
1448101375956	0.972625732421875	5.843597412109375	6.1906890869140625	-6.200090297885597	0	-21.681213	-39.460754	-6.790161	131.48413	-50.99707	1.2538478
1448101375996	-0.403228759765625	7.312286376953125	5.7574615478515625	-6.2475946382396295	0	-21.681213	-39.460754	-6.790161	131.20581	-51.513702	1.0745149
1448101376036	1.155914306640625	7.133758544921875	5.1933135986328125	-6.134681366615633	0	-20.487976	-37.591553	-6.625366	130.66534	-52.495003	1.0658169
1448101376077	0.137115478515625	7.436065673828125	5.8479156494140625	-6.143118486226822	0	-21.340942	-40.141296	-4.800415	130.20871	-53.61778	1.4650781
1448101376117	0.368011474609375	7.781219482421875	4.8529205322265625	-6.200750379001113	0	-22.02301	-39.801025	-4.800415	130.34296	-55.702347	2.5924187
1448101376157	1.705780029296875	8.090667724609375	6.1835479736328125	-5.809101316130414	0	-22.193909	-39.29138	-3.6392212	129.7254	-56.36428	3.0822058
1448101376198	1.977142333984375	8.899993896484375	5.0814361572265625	-5.811781807929763	0	-22.363281	-39.801025	-2.1469116	128.80002	-56.566116	2.9168863
1448101376238	0.855987548828125	8.390594482421875	2.4058990478515625	-6.3930269336805505	0	-22.875977	-40.31067	-3.6392212	127.31653	-57.193977	2.1220083
1448101376278	0.032379150390625	7.593170166015625	5.9240875244140625	-6.12561686490955	0	-23.727417	-38.78174	-4.1366577	127.170166	-57.414906	1.6434647
1448101376318	-0.160430908203125	7.985931396484375	5.2813873291015625	-6.186256395121754	0	-20.658875	-39.801025	-3.805542	126.92886	-57.591	1.6083059
1448101376359	-0.960235595703125	7.985931396484375	4.1316680908203125	-6.352474278913647	0	-23.727417	-38.441467	-3.4744263	126.031494	-57.960514	0.9866201
1448101376399	-1.905242919921875	7.659820556640625	4.7267608642578125	-6.569110463186551	0	-23.04535	-39.120483	-4.1366577	124.75781	-58.037197	-0.58236563
1448101376439	-2.778839111328125	6.283966064453125	3.9198150634765625	-7.081725320936473	0	-20.658875	-39.801025	-5.131531	123.63931	-57.91054	-1.0869173
1448101376479	-0.560333251953125	7.343231201171875	4.3744659423828125	-6.4663359548081285	0	-22.02301	-38.441467	-5.4641724	121.63684	-57.491688	-0.555105
1448101376519	4.733612060546875	9.666473388671875	6.9762115478515625	-5.183149232762361	0	-21.681213	-38.441467	-5.131531	119.561035	-56.857403	0.80370224
1448101376560	2.979278564453125	9.202301025390625	5.8360137939453125	-5.561886419110347	0	-23.216248	-38.61084	-6.956482	118.25247	-56.789143	1.2562406
1448101376600	2.034271240234375	9.404632568359375	4.4125518798828125	-5.8252113366720195	0	-22.875977	-37.591553	-5.630493	117.7648	-57.49521	0.64503455
1448101376640	1.077362060546875	8.462005615234375	4.7029571533203125	-6.0326995205091105	0	-23.216248	-37.591553	-6.956482	118.55826	-58.329544	-0.1401932
1448101376680	-4.133270263671875	6.029266357421875	5.4123077392578125	-7.103212526290799	0	-22.53418	-38.95111	-7.6202393	120.55051	-58.810646	-1.499266
1448101376721	-7.651458740234375	5.258026123046875	4.6410675048828125	-8.307388578053343	0	-21.852112	-37.931824	-5.630493	122.362976	-59.312275	-2.1503325
1448101376761	-3.500091552734375	6.138763427734375	5.6812896728515625	-6.922165645078473	0	-20.658875	-39.801025	-5.131531	121.67352	-59.357834	-0.9746638
1448101376801	2.979278564453125	8.162078857421875	7.1333160400390625	-5.531711292452859	0	-23.216248	-38.95111	-6.625366	119.733	-59.764885	2.153924
1448101376841	6.904510498046875	10.937591552734375	4.5458526611328125	-5.0750088604451395	0	-22.53418	-38.95111	-5.630493	118.153564	-61.617104	5.4898777
1448101376881	4.950225830078125	10.497222900390625	2.2130889892578125	-5.604155744602129	0	-25.091553	-35.72235	-2.1469116	116.17944	-63.367634	6.359852
1448101376922	3.119720458984375	9.114227294921875	2.7796173095703125	-5.931865807377677	0	-26.28479	-36.572266	-3.6392212	115.19443	-64.2969	5.879541
1448101376962	1.236846923828125	8.688140869140625	2.6748809814453125	-6.256970614498738	0	-25.77362	-37.08191	-3.805542	116.12558	-65.59042	5.3556333
1448101377002	-2.550323486328125	6.929046630859375	1.7965240478515625	-7.32159553473584	0	-25.944519	-37.591553	-1.9821167	116.97418	-66.58029	3.735394
1448101377042	-4.568878173828125	6.429168701171875	3.6079864501953125	-7.468165271909633	0	-25.43335	-36.74164	-1.8157959	117.038025	-66.38052	2.201425
1448101377083	-3.273956298828125	6.988555908203125	3.2485504150390625	-7.167821869043541	0	-23.898315	-37.931824	-2.6443481	116.87012	-66.03495	2.858898
1448101377123	2.419891357421875	9.240386962890625	4.2625885009765625	-5.816253295603367	0	-25.091553	-36.062622	-1.1520386	115.87796	-65.50278	5.0354557
1448101377163	5.907135009765625	11.344635009765625	6.6310577392578125	-4.919593988259369	0	-26.966858	-36.231995	-2.9769897	114.3114	-64.54459	6.965637
1448101377203	7.192535400390625	11.715972900390625	5.5456085205078125	-4.8614896047419665	0	-27.137756	-37.08191	-4.4692993	113.73541	-64.94377	7.7202926
1448101377243	5.131134033203125	10.761444091796875	3.5532379150390625	-5.3968589599797285	0	-28.161621	-34.362793	-3.1417847	114.40802	-66.6926	7.388544
1448101377284	0.739349365234375	8.800018310546875	2.1297760009765625	-6.390587166775012	0	-25.944519	-35.89325	-0.65460205	114.95755	-67.99519	5.450765
1448101377325	-4.285614013671875	6.524383544921875	0.8181915283203125	-8.058183270621585	0	-25.77362	-37.42218	-0.48980713	115.41467	-68.838585	2.1810594
1448101377365	-4.668853759765625	6.667205810546875	-1.0289764404296875	-8.822031256665355	0	-25.091553	-38.78174	-1.1520386	116.23407	-69.18655	-0.012222624
1448101377405	-2.802642822265625	7.029022216796875	0.1207427978515625	-7.721624654250604	0	-21.681213	-39.801025	-1.4846802	117.96649	-68.43144	-0.041385826
1448101377445	0.096649169921875	6.874298095703125	3.8722076416015625	-6.804492484248305	0	-22.705078	-38.441467	-1.1520386	119.93738	-66.32244	1.2289408
1448101377485	2.831695556640625	9.385589599609375	4.8957672119140625	-5.669807478230982	0	-22.53418	-38.95111	-1.9821167	120.076935	-64.04147	3.5986996
1448101377526	5.076385498046875	11.028045654296875	2.7581939697265625	-5.4634876226753795	0	-25.944519	-37.931824	-4.3029785	119.00528	-62.75762	5.8829317
1448101377566	10.075164794921875	13.510772705078125	7.4689483642578125	-4.233908920794387	0	-27.137756	-34.024048	-3.805542	119.86511	-60.546455	8.154465
1448101377606	8.220855712890625	11.739776611328125	8.352066040039063	-4.485632196652773	0	-27.137756	-34.024048	-3.805542	121.371155	-59.587368	8.101434
1448101377647	-0.341339111328125	6.257781982421875	5.4123077392578125	-6.440779058483418	0	-26.797485	-35.383606	-3.805542	127.05151	-59.551342	4.5752044
1448101377687	-3.507232666015625	4.462982177734375	4.8433990478515625	-7.39845786142713	0	-26.115417	-37.42218	-4.4692993	128.90204	-59.503937	2.7889235
1448101377727	-7.696685791015625	2.734832763671875	4.4506378173828125	NaN	0	-24.92218	-39.29138	-3.3081055	131.91284	-58.84029	-0.17169754
1448101377767	-4.130889892578125	4.479644775390625	4.8648223876953125	-7.523274077029779	0	-20.147705	-39.631653	-3.3081055	132.1325	-56.893845	0.44053105
1448101377808	4.669342041015625	8.702423095703125	6.3239898681640625	-5.368610026500418	0	-20.999146	-39.460754	-6.1279297	129.38647	-55.294846	3.530645
1448101377848	6.937835693359375	10.801910400390625	7.0452423095703125	-4.953809482610643	0	-20.999146	-39.460754	-6.1279297	128.25775	-54.487503	5.199163
1448101377888	11.522430419921875	12.272979736328125	10.810989379882813	-3.9238795803189133	0	-26.797485	-36.062622	-4.800415	128.9964	-53.776062	9.033408
1448101377928	3.714813232421875	8.631011962890625	9.387527465820313	-5.144695597169241	0	-25.091553	-35.72235	-5.131531	131.68317	-54.619316	7.8486586
1448101377969	-0.615081787109375	6.143524169921875	5.9217071533203125	-6.422793040947399	0	-24.580383	-36.572266	-2.9769897	135.02454	-57.16969	5.2087727
1448101378009	-4.404632568359375	4.648651123046875	4.2887725830078125	-7.677564740147474	0	-22.02301	-39.120483	-1.8157959	137.70447	-59.749104	2.4122508
1448101378050	-5.709075927734375	4.151153564453125	3.1152496337890625	-8.558670807093682	0	-20.658875	-39.801025	-1.1520386	138.32648	-60.757946	1.2911807
1448101378090	-2.904998779296875	6.583892822265625	-0.0958709716796875	-7.913712504323338	0	-19.465637	-40.31067	-0.32348633	137.37238	-62.689037	0.79349864
1448101378130	1.629608154296875	8.664337158203125	1.5180206298828125	-6.369745923612291	0	-20.658875	-41.500854	1.1688232	136.36084	-62.26643	2.8674278
1448101378170	3.900482177734375	9.735504150390625	2.8081817626953125	-5.751459054136303	0	-21.170044	-40.65094	1.0025024	135.83176	-61.61832	4.0229325
1448101378211	5.652435302734375	11.527923583984375	8.002151489257813	-4.788382151403093	0	-22.02301	-39.120483	-1.1520386	134.85934	-59.071884	5.4532204
1448101378251	0.308502197265625	8.176361083984375	9.101882934570313	-5.612944528240271	0	-22.705078	-38.441467	-4.1366577	135.98868	-58.347347	3.8433938
1448101378292	-4.916412353515625	5.188995361328125	6.4263458251953125	-7.218371101118022	0	-21.170044	-39.970398	-1.9821167	137.20715	-59.26706	1.6647496
1448101378332	-5.982818603515625	4.767669677734375	4.2102203369140625	-8.075972538316575	0	-20.658875	-40.48004	-1.1520386	136.79639	-60.674763	0.45999426
1448101378372	-1.167327880859375	6.260162353515625	2.9533843994140625	-6.970014222684194	0	-20.317078	-41.160583	-0.15716553	134.10815	-61.516922	1.0189028
1448101378412	3.531524658203125	8.685760498046875	2.0678863525390625	-6.02702707322784	0	-20.999146	-39.801025	-1.4846802	130.48291	-61.94889	2.809541
1448101378452	5.204925537109375	11.482696533203125	1.2895050048828125	-5.566655769801292	0	-23.216248	-38.272095	0.0076293945	127.63428	-62.208374	4.401765
1448101378492	6.718841552734375	12.189666748046875	6.4406280517578125	-4.7718074171283815	0	-23.558044	-38.272095	-0.65460205	127.40488	-61.930878	5.706763
1448101378533	4.431304931640625	11.118499755859375	6.3477935791015625	-5.127113033825015	0	-24.240112	-36.231995	-1.9821167	128.89905	-61.64249	5.470233
1448101378573	-0.336578369140625	9.049957275390625	10.825271606445313	-5.386345424447216	0	-23.04535	-38.78174	-2.4795532	131.2757	-61.42179	3.9176621
1448101378613	-1.648162841796875	6.914764404296875	8.928115844726563	-6.039012256200717	0	-22.705078	-40.48004	-1.8157959	133.47546	-62.245316	2.0146034
1448101378654	-2.350372314453125	5.567474365234375	4.7981719970703125	-6.975474067115423	0	-20.658875	-41.8396	0.1739502	134.73932	-64.52122	0.54274
1448101378694	-3.507232666015625	4.646270751953125	1.1133575439453125	-8.305801669149778	0	-19.465637	-42.349243	1.335144	135.16321	-67.34961	-0.5006046
1448101378734	-2.200408935546875	5.177093505859375	-2.1453704833984375	-8.894835728428633	0	-19.63501	-41.8396	2.1636963	133.68954	-69.479965	-0.9615787
1448101378774	-2.226593017578125	5.322296142578125	-3.0784759521484375	-9.675347674871785	0	-19.465637	-40.989685	4.319763	131.11212	-69.84084	-0.47169647
1448101378815	0.522735595703125	8.233489990234375	-1.1646575927734375	-7.051319979173792	0	-20.829773	-42.010498	3.6560059	128.94269	-68.24721	1.1769773
1448101378855	5.438201904296875	12.849029541015625	-0.4600677490234375	-5.5843773985388845	0	-21.170044	-39.970398	1.6662598	127.450806	-65.89025	3.9037645
1448101378895	8.280364990234375	15.188934326171875	11.910720825195313	-3.858489363705348	0	-24.580383	-37.931824	0.0076293945	127.9422	-61.813095	5.687283
1448101378936	2.955474853515625	8.780975341796875	18.863784790039063	-4.274852085881754	0	-24.751282	-37.42218	-1.1520386	131.02005	-57.735565	5.050481
1448101378977	-3.959503173828125	6.105438232421875	10.006423950195313	-6.320576619586571	0	-22.02301	-37.76245	-3.4744263	133.55725	-58.644463	2.3222976
1448101379017	-3.671478271484375	5.567474365234375	2.7010650634765625	-7.4783668596843516	0	-20.658875	-41.160583	-1.1520386	133.86768	-62.149097	0.4181086
1448101379057	-2.852630615234375	4.934295654296875	1.5751495361328125	-7.894320058360881	0	-19.294739	-41.8396	0.1739502	133.12756	-64.91779	-0.63955295
1448101379098	-0.819793701171875	5.003326416015625	0.5587310791015625	-7.628926058854239	0	-19.294739	-41.8396	0.1739502	132.63031	-65.66452	-0.448234
1448101379138	-0.031890869140625	6.990936279296875	-3.4926605224609375	-7.944776998827409	0	-19.976807	-41.8396	1.499939	129.98376	-66.88355	0.18714921
1448101379178	1.891448974609375	9.337982177734375	2.2868804931640625	-6.13014632213218	0	-20.999146	-41.500854	1.8325806	129.46649	-65.44427	1.2836348
1448101379218	2.912628173828125	11.844512939453125	4.6482086181640625	-5.4014496357734485	0	-20.999146	-41.500854	1.8325806	129.53833	-64.26818	2.0781841
1448101379259	8.808807373046875	15.374603271484375	8.768630981445313	-4.066213111821071	0	-22.53418	-38.95111	-1.3183594	129.8436	-61.77072	3.6763856
1448101379299	-0.262786865234375	8.300140380859375	11.084732055664063	-5.433719305161749	0	-21.852112	-38.61084	-1.6494751	133.44147	-59.59427	2.5258248
1448101379339	-0.665069580078125	8.483428955078125	7.8997955322265625	-5.841987168054544	0	-21.852112	-38.61084	-1.6494751	134.08786	-60.299	1.2736211
1448101379379	-2.816925048828125	6.900482177734375	3.0343170166015625	-7.138665565740451	0	-18.2724	-40.48004	-0.15716553	136.09326	-64.14058	-1.5204471
1448101379420	-4.195159912109375	5.410369873046875	2.1797637939453125	-7.964054544690196	0	-18.78357	-42.689514	1.6662598	137.01636	-66.025795	-2.9110394
1448101379460	-3.523895263671875	4.879547119140625	1.0467071533203125	-8.256645481703071	0	-17.419434	-41.670227	1.9973755	136.7045	-67.304924	-3.4251986
1448101379500	-3.083526611328125	4.734344482421875	-1.1741790771484375	-9.116209680003179	0	-17.419434	-42.349243	2.330017	135.54947	-68.37032	-3.029174
1448101379541	-1.945709228515625	5.979278564453125	-0.1410980224609375	-7.833665304305141	0	-18.78357	-42.010498	4.650879	133.86331	-68.0954	-1.9203428
1448101379581	2.522247314453125	9.459381103515625	3.7936553955078125	-5.834788849721507	0	-19.465637	-42.349243	3.9871216	133.31589	-66.88657	0.63482445
1448101379621	4.924041748046875	13.741668701171875	5.2647247314453125	-4.91472559639313	0	-19.465637	-40.65094	1.0025024	132.92786	-65.72553	2.9757414
1448101379661	7.635284423828125	14.103485107421875	10.482498168945313	-4.130221955842324	0	-23.216248	-41.329956	1.335144	132.74066	-63.80024	4.0068746
1448101379702	0.691741943359375	9.516510009765625	8.837661743164063	-5.442437572192223	0	-23.387146	-39.120483	0.8377075	133.91806	-63.309155	2.8009362
1448101379742	-1.957611083984375	7.359893798828125	5.1885528564453125	-6.552243601065017	0	-22.363281	-40.141296	-0.15716553	134.76086	-64.70735	0.8774166
1448101379782	-4.728363037109375	5.160430908203125	2.8438873291015625	-7.996640000388044	0	-19.63501	-39.460754	2.1636963	135.21979	-66.38877	-0.7351466
1448101379822	-4.904510498046875	4.298736572265625	1.5132598876953125	-8.85397942394988	0	-18.78357	-40.989685	1.6662598	135.03448	-67.72325	-1.3636804
1448101379863	-1.495819091796875	5.891204833984375	-0.1387176513671875	-7.743430571470119	0	-19.976807	-40.820313	4.484558	133.85855	-68.67206	-0.28134006
1448101379903	1.689117431640625	8.323944091796875	-1.0599212646484375	-6.814420149324398	0	-20.487976	-41.329956	4.650879	132.26926	-68.6967	1.629254
1448101379943	7.356781005859375	13.698822021484375	1.8988800048828125	-5.015516298766367	0	-20.147705	-39.29138	3.6560059	131.60864	-67.64311	3.9306185
1448101379983	10.339385986328125	15.736419677734375	5.4456329345703125	-4.1922043425286795	0	-22.193909	-39.970398	2.6611328	133.04053	-66.62728	5.7010593
1448101380023	6.259429931640625	12.791900634765625	7.3380279541015625	-4.669542620477379	0	-23.216248	-39.29138	2.9922485	134.20984	-66.009705	5.3065944
1448101380064	-2.655059814453125	7.552703857421875	9.961196899414063	-5.9518832863642475	0	-20.487976	-40.65094	2.6611328	137.55344	-64.712906	1.1169946
1448101380104	-4.168975830078125	5.979278564453125	5.9288482666015625	-7.024667038734297	0	-19.12384	-39.970398	1.335144	139.49908	-66.330215	-0.9380847
1448101380144	-4.287994384765625	5.303253173828125	3.0890655517578125	-7.78068678842841	0	-16.737366	-43.36853	4.319763	140.22308	-68.66234	-2.3435755
1448101380184	-3.673858642578125	4.743865966796875	0.5706329345703125	-8.525725197847557	0	-17.590332	-43.199158	4.8171997	139.43909	-70.43237	-2.8445609
1448101380225	-1.959991455078125	4.965240478515625	-1.9763641357421875	-8.792260368665744	0	-17.419434	-42.689514	6.640625	137.4812	-71.63725	-2.542404
1448101380265	-2.262298583984375	5.519866943359375	-2.4691009521484375	-8.918643127608911	0	-17.759705	-43.36853	6.3095093	135.35626	-71.69156	-1.624469
1448101380305	-0.074737548828125	9.540313720703125	-1.2622528076171875	-6.942455561558074	0	-19.63501	-40.820313	7.801819	133.43036	-70.20115	0.2551477
1448101380345	5.933319091796875	13.765472412109375	2.6320343017578125	-5.081049682241859	0	-19.976807	-42.17987	4.1534424	132.87155	-67.95001	3.145964
1448101380386	7.799530029296875	14.389129638671875	13.160415649414063	-3.861091164132138	0	-22.705078	-40.820313	2.1636963	133.7655	-64.453606	5.134378
1448101380426	4.267059326171875	11.213714599609375	14.702896118164063	-4.312633305165992	0	-23.216248	-40.31067	1.0025024	134.99957	-61.98429	4.587237
1448101380466	0.165679931640625	8.726226806640625	6.9619293212890625	-5.824912410601465	0	-20.999146	-39.460754	0.1739502	136.36102	-63.67597	2.6186893
1448101380507	-4.487945556640625	6.191131591796875	1.6227569580078125	-7.982883192717668	0	-20.147705	-40.31067	3.6560059	137.24527	-66.76286	0.2934296
1448101380547	-4.609344482421875	5.203277587890625	1.6584625244140625	-8.305801669149778	0	-17.419434	-42.349243	2.9922485	137.06213	-68.64138	-1.3311015
1448101380587	-3.340606689453125	4.777191162109375	0.3135528564453125	-8.483672439964469	0	-18.441772	-41.670227	6.3095093	136.29211	-69.63532	-1.4889336
1448101380627	-2.024261474609375	5.022369384765625	-1.9835052490234375	-8.79932513129096	0	-18.952942	-40.820313	5.8120728	134.82416	-70.18356	-0.8829341
1448101380668	0.741729736328125	6.831451416015625	0.3302154541015625	-7.454969368719533	0	-19.805908	-41.329956	5.9783936	132.98944	-69.5101	0.31664577
1448101380708	2.403228759765625	9.078521728515625	1.1585845947265625	-6.251275108656339	0	-20.658875	-40.48004	5.1483154	131.81958	-67.66595	1.940585
1448101380748	8.387481689453125	15.243682861328125	6.1621246337890625	-4.485632196652773	0	-20.999146	-39.801025	2.8274536	131.844	-65.55163	4.463284
1448101380788	5.383453369140625	12.468170166015625	13.081863403320313	-4.244811893781231	0	-22.53418	-38.95111	1.9973755	134.71954	-62.879192	5.7328515
1448101380829	2.012847900390625	10.456756591796875	10.011184692382813	-5.065208939923821	0	-22.53418	-38.95111	1.9973755	135.63306	-62.998466	4.8620625
1448101380869	-3.188262939453125	6.417266845703125	4.6743927001953125	-6.99530197125148	0	-19.976807	-41.160583	1.8325806	136.98727	-65.690575	1.3581448
1448101380909	-3.233489990234375	5.919769287109375	1.7584381103515625	-7.698350155406963	0	-19.63501	-41.8396	4.1534424	137.271	-67.02992	0.49359483
1448101380949	-2.769317626953125	5.957855224609375	0.4777984619140625	-7.891832113395905	0	-19.63501	-41.8396	4.1534424	137.39984	-69.33883	-9.459812E-4
1448101380989	-2.814544677734375	3.817901611328125	1.1847686767578125	-8.327368574444295	0	-18.952942	-41.500854	5.8120728	136.56866	-71.47676	0.61926097
1448101381030	-1.988555908203125	4.086883544921875	0.2040557861328125	-8.289239323413328	0	-19.294739	-41.160583	7.1380615	135.35645	-72.41184	1.8266166
1448101381070	0.820281982421875	5.203277587890625	-0.5029144287109375	-7.456994683866764	0	-19.294739	-41.160583	7.1380615	134.4508	-72.64019	2.6142106
1448101381110	3.467254638671875	13.601226806640625	4.4458770751953125	-5.168242691587051	0	-21.681213	-41.8396	6.806946	131.01837	-71.14467	5.730718
1448101381150	12.350799560546875	19.394454956054688	10.049270629882813	-3.341731467192517	0	-23.558044	-39.631653	4.319763	130.85706	-70.4546	8.823647
1448101381192	2.893585205078125	13.446502685546875	8.578201293945313	-4.8147777691337685	0	-25.091553	-38.441467	5.480957	132.43262	-71.69715	8.746874
1448101381232	2.893585205078125	13.446502685546875	8.578201293945313	-4.8147777691337685	0	-25.091553	-38.441467	5.480957	132.43262	-71.69715	8.746874
1448101381272	-1.345855712890625	7.021881103515625	-0.4481658935546875	-7.520148710978011	0	-24.580383	-40.31067	8.299255	134.367	-76.46432	4.811451
1448101381313	-2.581268310546875	5.265167236328125	-1.6859588623046875	-8.807630499226045	0	-22.875977	-39.631653	7.9681396	134.35565	-77.75175	2.7190533
1448101381353	-3.345367431640625	3.758392333984375	-1.2979583740234375	NaN	0	-21.340942	-41.500854	10.455322	134.30997	-78.33609	1.5768765
1448101381393	-3.371551513671875	2.870513916015625	-2.3310394287109375	NaN	0	-20.317078	-41.500854	10.455322	134.21802	-78.422	1.8286973
1448101381434	0.348968505859375	5.136627197265625	-2.2096405029296875	-7.996640000388044	0	-21.852112	-40.31067	10.289001	133.3844	-77.17422	3.6126468
1448101381474	0.672698974609375	6.869537353515625	1.7822418212890625	-6.75299915027945	0	-22.193909	-41.329956	9.294128	132.11664	-73.61947	5.7645807
1448101381514	6.414154052734375	15.519805908203125	10.989517211914063	-4.068701676323328	0	-24.240112	-38.95111	5.314636	130.31628	-68.81366	8.300799
1448101381554	10.672637939453125	17.985870361328125	14.569595336914063	-3.231791741374102	0	-26.797485	-38.441467	4.484558	131.19858	-66.19415	10.737467
1448101381594	2.648406982421875	11.551727294921875	8.632949829101563	-5.028202349485205	0	-26.797485	-38.441467	3.489685	132.21112	-66.570435	9.292004
1448101381635	0.905975341796875	8.423919677734375	5.3480377197265625	-5.975420972695505	0	-25.602722	-37.252808	3.6560059	133.00253	-68.35244	6.987655
1448101381675	-0.879302978515625	6.733856201171875	1.3061676025390625	-7.130647678826225	0	-23.558044	-38.61084	3.9871216	133.45294	-70.81034	4.812144
1448101381715	-1.107818603515625	5.412750244140625	0.0041046142578125	-7.730778173618262	0	-23.04535	-39.120483	5.480957	133.96545	-72.950516	3.4637995
1448101381755	-0.600799560546875	4.601043701171875	-2.0025482177734375	-8.393201286666935	0	-22.705078	-39.460754	6.806946	134.36539	-75.21425	3.0892272
1448101381796	-2.931182861328125	3.703643798828125	-4.3424530029296875	NaN	0	-21.340942	-41.500854	9.127808	134.58057	-77.03345	3.1414816
1448101381837	-1.131622314453125	5.934051513671875	-2.7714080810546875	-8.381461017948052	0	-21.681213	-41.8396	10.122681	133.55396	-76.60751	4.275035
1448101381877	0.484649658203125	10.023529052734375	2.7177276611328125	-6.169856075543631	0	-23.898315	-40.65094	8.299255	132.30685	-73.85718	6.263726
1448101381917	13.245819091796875	19.394454956054688	18.994705200195313	-2.620851657061258	0	-24.409485	-40.141296	7.1380615	132.59103	-69.923294	9.142261
1448101381958	3.329193115234375	12.363433837890625	12.727188110351563	-4.475576171177194	0	-25.091553	-38.441467	3.1585693	134.31561	-68.27399	8.579559
1448101381998	3.924285888671875	10.402008056640625	3.8007965087890625	-5.549007904213749	0	-24.409485	-39.801025	5.480957	134.48688	-71.27786	6.306849
1448101382038	0.394195556640625	6.893341064453125	-3.0213470458984375	-7.7411243707089366	0	-21.681213	-39.801025	10.455322	135.52896	-75.80795	4.009683
1448101382079	-0.536529541015625	6.129241943359375	-3.2117767333984375	-8.263571915697801	0	-21.681213	-39.801025	10.455322	136.29944	-78.310135	1.4126263
1448101382119	-1.855255126953125	4.634368896484375	-4.4233856201171875	NaN	0	-21.51184	-42.010498	11.61499	136.59088	-79.19208	-0.93832207
1448101382159	-4.171356201171875	4.151153564453125	-4.1401214599609375	NaN	0	-17.930603	-42.17987	12.445068	138.43292	-79.18562	-2.6450539
1448101382199	-4.261810302734375	3.951202392578125	-0.4624481201171875	NaN	0	-17.590332	-43.8797	12.445068	138.66833	-78.555855	-2.5411887
1448101382239	-1.034027099609375	3.658416748046875	1.8060455322265625	-7.701740104267254	0	-17.419434	-42.010498	11.2838745	138.04044	-75.75773	-1.7187556
1448101382280	1.324920654296875	11.730255126953125	3.0652618408203125	-5.791573521622763	0	-17.759705	-42.349243	7.635498	139.37115	-72.92317	0.7054893
1448101382321	7.663848876953125	16.971832275390625	8.790054321289063	-4.025100586038876	0	-19.465637	-40.65094	7.635498	137.18378	-70.704475	1.7113004
1448101382361	2.488922119140625	12.251556396484375	6.2621002197265625	-5.2237429505873125	0	-19.294739	-42.52014	3.8223267	136.54675	-68.890076	0.39826977
1448101382402	-2.514617919921875	6.352996826171875	-1.2170257568359375	-8.187540659081927	0	-18.61267	-43.8797	4.1534424	138.40405	-69.83494	-2.9113882
1448101382442	-7.153961181640625	3.644134521484375	-3.9449310302734375	NaN	0	-18.2724	-42.52014	6.1431885	139.2081	-70.51802	-5.0547295
1448101382482	-7.372955322265625	3.151397705078125	-1.2646331787109375	NaN	0	-16.226196	-43.8797	6.806946	141.17163	-69.94373	-5.133758
1448101382523	-2.176605224609375	7.609832763671875	-2.0049285888671875	-7.955033379487707	0	-15.202332	-44.898987	4.8171997	142.23001	-68.7032	-3.3234255
1448101382564	0.191864013671875	10.825714111328125	18.642410278320313	-4.360501543001603	0	-15.884399	-42.17987	5.480957	142.25958	-63.77656	-1.4025264
1448101382604	3.010223388671875	14.186798095703125	17.692642211914063	-3.8998526974409113	0	-16.908264	-43.199158	2.1636963	141.98639	-61.868774	-0.4507408
1448101382644	3.155426025390625	12.706207275390625	5.6432037353515625	-5.1692691905652435	0	-17.248535	-41.500854	1.1688232	139.61176	-62.4011	0.37306416
1448101382684	2.086639404296875	9.618865966796875	4.0769195556640625	-5.83388997701093	0	-18.441772	-41.670227	2.330017	139.51627	-64.80906	-0.39869326
1448101382725	-0.798370361328125	6.324432373046875	-0.6576385498046875	-7.6001495786412825	0	-17.590332	-42.52014	2.1636963	140.7775	-68.75366	-0.9926367
1448101382765	-0.998321533203125	4.727203369140625	-3.2712860107421875	-9.13014170476273	0	-17.759705	-44.389343	5.9783936	141.77621	-71.803444	-1.5867398
1448101382805	-1.264923095703125	4.029754638671875	3.3009185791015625	-7.343725638188111	0	-16.226196	-44.218445	8.465576	142.39575	-71.39561	-2.2734904
1448101382845	-3.190643310546875	4.372528076171875	3.4461212158203125	-7.6553199202694895	0	-15.544128	-42.858887	8.465576	142.40283	-69.48985	-3.2508068
1448101382885	-1.707672119140625	5.193756103515625	5.5289459228515625	-6.80409606041448	0	-15.202332	-44.558716	5.480957	140.887	-67.235664	-3.8688552
1448101382925	-1.598175048828125	10.882843017578125	5.8431549072265625	-5.917149797725061	0	-16.226196	-43.53943	5.1483154	139.20758	-65.43885	-3.2187922
1448101382966	2.684112548828125	14.203460693359375	10.844314575195313	-4.540492536476034	0	-15.544128	-44.218445	2.8274536	138.4325	-63.462223	-1.4171937
1448101383006	5.714324951171875	14.043975830078125	6.6286773681640625	-4.669774311949639	0	-18.2724	-42.17987	1.6662598	138.1658	-63.17385	-0.35997042
1448101383046	0.698883056640625	8.940460205078125	3.3223419189453125	-6.206365954737933	0	-18.441772	-43.36853	1.335144	137.47833	-64.59944	-0.93803686
1448101383086	-2.131378173828125	5.850738525390625	3.3604278564453125	-7.145812859320044	0	-18.441772	-43.7088	2.330017	137.47308	-65.67582	-2.6596763
1448101383126	-2.714569091796875	4.808135986328125	1.5656280517578125	-7.893697768758408	0	-15.544128	-43.8797	2.8274536	138.43945	-67.002884	-3.476994
1448101383167	-3.702423095703125	5.148529052734375	2.6201324462890625	-7.7901083924498185	0	-16.055298	-43.36853	5.645752	138.99097	-67.40267	-3.7034822
1448101383207	-1.460113525390625	7.926422119140625	2.6391754150390625	-6.7890705454976805	0	-15.713501	-45.06836	4.9819946	139.32495	-67.28809	-3.0852907
1448101383247	-0.510345458984375	10.097320556640625	6.4977569580078125	-5.796022478537029	0	-14.691162	-43.7088	4.9819946	139.46194	-66.310745	-2.2888212
1448101383288	0.955963134765625	11.723114013671875	9.113784790039063	-5.138317453015877	0	-16.055298	-44.049072	3.3248901	139.30139	-65.386604	-1.897854
1448101383328	2.917388916015625	11.337493896484375	5.4361114501953125	-5.290189425490739	0	-16.055298	-42.349243	3.6560059	139.23083	-66.76448	-1.3472867
1448101383368	3.488677978515625	10.790008544921875	1.9774322509765625	-5.77471225671968	0	-16.055298	-43.029785	2.6611328	138.93549	-68.77109	-1.9252324
1448101383408	0.779815673828125	8.352508544921875	3.2628326416015625	-6.285924374448625	0	-17.077637	-43.36853	5.314636	139.54282	-69.84595	-3.4928427
1448101383449	-3.047821044921875	6.038787841796875	3.9531402587890625	-7.171432632324075	0	-14.179993	-43.8797	5.8120728	141.0144	-70.34682	-6.5883384
1448101383489	-2.552703857421875	6.526763916015625	2.9224395751953125	-7.180481260531225	0	-13.156128	-45.237732	6.47583	141.27332	-70.413124	-7.2961235
1448101383529	-4.697418212890625	6.533905029296875	2.6844024658203125	-7.6803617061517855	0	-12.815857	-44.898987	6.47583	141.15085	-70.55206	-8.852992
1448101383570	-5.690032958984375	5.334197998046875	1.8108062744140625	-8.60037808282366	0	-11.280823	-45.40863	7.3043823	139.0169	-69.89121	-10.951019
1448101383610	-4.568878173828125	5.803131103515625	2.1916656494140625	-7.955676290307576	0	-12.9852295	-44.72809	5.9783936	138.26855	-69.55914	-10.977652
1448101383651	-4.587921142578125	8.690521240234375	0.9657745361328125	-7.555294904330143	0	-11.962891	-45.06836	3.6560059	135.85883	-68.910576	-10.222649
1448101383692	1.246368408203125	12.791900634765625	0.2159576416015625	-6.031122985824133	0	-13.497925	-44.218445	4.484558	132.3302	-68.0498	-7.9725833
1448101383732	4.866912841796875	15.574554443359375	8.571060180664063	-4.420272172451781	0	-14.862061	-43.53943	1.1688232	130.06845	-64.95138	-5.9481893
1448101383772	3.979034423828125	15.188934326171875	12.574844360351563	-4.172523934632088	0	-16.226196	-42.52014	1.1688232	130.15637	-63.087822	-5.774641
1448101383812	2.258026123046875	8.876190185546875	7.0833282470703125	-5.5383984401314805	0	-17.077637	-43.029785	-0.98724365	132.57281	-63.13133	-6.684229
1448101383853	0.020477294921875	5.581756591796875	3.5675201416015625	-6.778439827829394	0	-14.349365	-42.689514	-1.3183594	134.62122	-66.161964	-8.23662
1448101383893	-3.081146240234375	1.992156982421875	3.1081085205078125	-8.385642835728214	0	-13.156128	-43.53943	1.8325806	137.3858	-68.62668	-9.982972
1448101383933	-7.275360107421875	1.844573974609375	-2.1858367919921875	NaN	0	-12.9852295	-44.389343	4.9819946	139.61072	-72.04296	-11.152916
1448101383974	-9.358184814453125	3.763153076171875	-6.0134735107421875	NaN	0	-10.940552	-44.389343	6.640625	139.86621	-75.67304	-10.97546
1448101384015	-1.150665283203125	7.586029052734375	-6.0848846435546875	-9.2145872248198	0	-10.940552	-45.40863	9.957886	140.39758	-77.43679	-7.590621
1448101384055	2.034271240234375	11.135162353515625	2.7415313720703125	-5.817744905386971	0	-15.031433	-43.029785	10.952759	141.23236	-75.78253	-3.579166
1448101384095	7.797149658203125	14.655731201171875	12.003555297851563	-3.93663950973888	0	-16.226196	-43.8797	11.781311	140.5268	-72.07573	-1.0525179
1448101384135	6.530792236328125	15.805450439453125	17.478408813476563	-3.4967147800250897	0	-18.2724	-42.52014	6.47583	138.88947	-68.578316	-0.8818208
1448101384176	3.191131591796875	10.547210693359375	10.218276977539063	-4.912050044928	0	-17.419434	-42.349243	4.319763	139.45245	-70.45278	-2.4243221
1448101384216	-2.983551025390625	7.305145263671875	-2.0358734130859375	-8.294739945234575	0	-16.055298	-42.349243	4.9819946	139.65002	-75.77866	-5.168622
1448101384256	-6.763580322265625	5.241363525390625	-4.6161956787109375	NaN	0	-15.031433	-42.010498	10.620117	138.81049	-79.73364	-7.777118
1448101384297	-4.680755615234375	5.531768798828125	-4.3448333740234375	NaN	0	-13.327026	-43.7088	10.952759	138.71191	-81.208145	-8.6510935
1448101384337	-8.546478271484375	2.346832275390625	-1.0194549560546875	NaN	0	-13.156128	-42.52014	14.76593	137.98395	-79.66108	-9.513047
1448101384378	-5.299652099609375	3.998809814453125	-1.2408294677734375	NaN	0	-11.791992	-43.8797	10.455322	135.69672	-77.26308	-8.871882
1448101384418	-0.905487060546875	7.783599853515625	-1.9477996826171875	-7.586169161096981	0	-13.156128	-42.858887	8.465576	133.70874	-74.764824	-5.779261
1448101384458	9.603851318359375	16.141082763671875	13.793594360351563	-3.51863304379048	0	-16.055298	-44.389343	8.299255	131.29153	-69.040085	-2.0647454
1448101384499	4.459869384765625	14.374847412109375	19.427932739257813	-3.6209189917250972	0	-18.952942	-41.500854	0.5050659	129.99847	-63.23486	-1.6036698
1448101384539	2.041412353515625	10.237762451171875	9.477981567382813	-5.142143292936431	0	-18.2724	-40.48004	-1.4846802	130.1513	-66.083275	-2.560452
1448101384579	-0.855499267578125	6.940948486328125	-3.5117034912109375	-8.202310210859938	0	-17.759705	-42.349243	-0.32348633	130.49799	-72.97268	-3.7202225
1448101384620	-4.323699951171875	3.860748291015625	-7.6464080810546875	NaN	0	-17.077637	-43.029785	6.9732666	130.62866	-78.46074	-5.0350184
1448101384660	-3.930938720703125	3.760772705078125	-6.5752410888671875	NaN	0	-15.202332	-42.858887	8.796692	130.77332	-80.361824	-5.29254
1448101384700	-4.383209228515625	3.984527587890625	-6.4443206787109375	NaN	0	-17.248535	-44.218445	10.455322	130.39807	-79.62151	-4.889735
1448101384740	0.110931396484375	8.226348876953125	1.6513214111328125	-6.646125085597053	0	-17.930603	-42.17987	7.470703	131.11697	-75.85482	-1.3204199
1448101384781	6.735504150390625	12.649078369140625	8.183059692382813	-4.5561102883717535	0	-18.441772	-41.329956	8.299255	131.57828	-73.87353	0.7720772
1448101384822	4.102813720703125	13.663116455078125	19.427932739257813	-3.7079228553202563	0	-22.53418	-40.989685	5.645752	133.22028	-68.505356	3.3913178
1448101384862	-2.283721923828125	7.807403564453125	6.2454376220703125	-6.375985002263397	0	-22.02301	-42.17987	2.494812	132.801	-70.52813	0.9493679
1448101384903	-2.985931396484375	6.831451416015625	-0.1149139404296875	-7.875122306858926	0	-21.51184	-43.029785	2.6611328	132.38141	-73.33845	0.20012152
1448101384943	-3.090667724609375	5.557952880859375	-5.4398040771484375	NaN	0	-19.465637	-41.670227	8.963013	131.31433	-80.14909	-0.35490233
1448101384983	-2.757415771484375	5.391326904296875	-4.8423309326171875	NaN	0	-20.317078	-41.8396	9.791565	131.36993	-81.074585	-0.06501317
1448101385023	-0.738861083984375	7.633636474609375	1.1966705322265625	-6.962053300989494	0	-19.805908	-40.989685	12.278748	131.32611	-80.99706	2.471476
1448101385063	2.322296142578125	10.728118896484375	2.1131134033203125	-5.912562449798049	0	-22.705078	-39.460754	10.455322	133.68024	-80.107185	5.714374
1448101385104	10.496490478515625	15.353179931640625	9.844558715820313	-3.8321352435572464	0	-22.705078	-40.48004	10.455322	135.7417	-78.18651	9.15302
1448101385145	0.820281982421875	10.271087646484375	13.003311157226563	-4.897966708936915	0	-24.069214	-38.101196	8.132935	133.73419	-73.45707	7.728241
1448101385185	-1.012603759765625	7.669342041015625	3.3937530517578125	-6.63634901103906	0	-21.51184	-39.970398	5.9783936	132.13159	-74.12692	4.895003
1448101385225	-1.098297119140625	7.726470947265625	-3.2855682373046875	-7.978320592792143	0	-22.705078	-38.78174	6.47583	131.23297	-77.1889	3.5923927
1448101385265	-2.005218505859375	6.890960693359375	-3.8854217529296875	-8.806439795547577	0	-22.193909	-40.31067	7.635498	130.94818	-78.48303	3.1311681
1448101385305	-1.381561279296875	7.012359619140625	-3.7640228271484375	-8.440300064884978	0	-20.658875	-40.141296	10.455322	131.14941	-79.82727	3.4905005
1448101385346	-0.229461669921875	7.766937255859375	-1.5764617919921875	-7.36508125259188	0	-21.51184	-40.31067	10.289001	131.66144	-79.67257	4.2856016
1448101385386	5.566741943359375	11.187530517578125	4.1054840087890625	-5.23935176175779	0	-21.852112	-39.970398	9.625244	135.30273	-78.39782	8.082557
1448101385426	5.942840576171875	11.618377685546875	14.576736450195313	-4.137565275118341	0	-23.387146	-39.460754	9.791565	137.81345	-75.53167	9.853192
1448101385467	-0.293731689453125	7.159942626953125	7.8688507080078125	-5.967972426829112	0	-23.898315	-37.931824	8.299255	137.58789	-75.30655	8.527607
1448101385507	0.391815185546875	8.761932373046875	-5.2826995849609375	-7.839102103271057	0	-22.02301	-38.441467	9.460449	135.61023	-80.47507	7.663315
1448101385547	1.729583740234375	8.412017822265625	-6.4371795654296875	-7.881912493657655	0	-23.216248	-38.61084	11.61499	134.43909	-84.16743	7.7530355
1448101385587	1.403472900390625	7.750274658203125	-6.5442962646484375	-8.19122038704665	0	-22.02301	-39.801025	14.102173	134.64978	-85.17404	7.8380117
1448101385627	1.727203369140625	8.557220458984375	-2.2786712646484375	-6.977156138836367	0	-23.558044	-37.931824	12.609863	133.99728	-83.41253	7.928282
1448101385668	2.979278564453125	10.318695068359375	2.0702667236328125	-5.886365267685452	0	-22.705078	-39.120483	11.781311	134.2384	-79.858246	8.055893
1448101385708	4.331329345703125	11.263702392578125	18.149673461914063	-3.997580702373651	0	-24.240112	-38.95111	10.620117	136.45093	-75.106804	7.928367
1448101385748	-3.362030029296875	7.174224853515625	11.313247680664063	-5.917455813307661	0	-21.681213	-40.820313	6.806946	139.09409	-74.345535	6.5551357
1448101385789	0.915496826171875	8.966644287109375	0.6015777587890625	-6.568742857989205	0	-21.681213	-41.500854	9.460449	138.19305	-78.59918	5.871889
1448101385829	3.193511962890625	10.492462158203125	-3.7902069091796875	-6.660846161583194	0	-21.170044	-41.670227	10.620117	135.20605	-81.93698	6.1174364
1448101385869	1.631988525390625	8.657196044921875	-3.0832366943359375	-7.122210334549664	0	-23.216248	-40.31067	12.609863	133.34952	-83.477974	5.6620226
1448101385909	1.384429931640625	7.555084228515625	-4.1377410888671875	-7.61530516103171	0	-22.53418	-39.631653	14.268494	132.302	-84.552605	5.1595955
1448101385949	-0.688873291015625	7.043304443359375	-6.1658172607421875	-9.372302991489047	0	-23.04535	-39.120483	13.1073	131.79364	-85.09665	4.635279
1448101385990	-0.679351806640625	7.312286376953125	-1.9573211669921875	-7.644283324922014	0	-22.875977	-39.29138	12.609863	132.11981	-83.96164	4.4879274
1448101386030	0.222808837890625	8.992828369140625	1.7346343994140625	-6.497480539109336	0	-21.170044	-38.95111	12.942505	133.51654	-81.44841	4.9116764
1448101386070	4.350372314453125	12.563385009765625	7.9021759033203125	-4.825040683125507	0	-21.170044	-39.631653	11.61499	135.80219	-78.97374	6.0417714
1448101386111	3.091156005859375	11.813568115234375	11.260879516601563	-4.691367489380828	0	-21.681213	-39.460754	10.122681	138.09555	-75.274666	5.7041926
1448101386152	1.762908935546875	10.461517333984375	7.1428375244140625	-5.405774646279937	0	-21.170044	-40.31067	8.963013	137.69604	-75.40738	4.7363524
1448101386192	1.401092529296875	9.652191162109375	1.5846710205078125	-6.251609885820487	0	-20.999146	-41.8396	8.465576	135.95941	-77.2156	2.849693
1448101386232	-0.865020751953125	7.381317138671875	-2.7499847412109375	-7.8659012481305055	0	-20.487976	-41.329956	9.294128	135.25476	-81.54675	0.86418307
1448101386272	-1.343475341796875	6.971893310546875	-3.7806854248046875	-8.447286738111735	0	-19.294739	-41.500854	11.117554	135.5998	-83.08731	0.41473103
1448101386313	-1.660064697265625	5.886444091796875	-6.2753143310546875	NaN	0	-18.2724	-41.500854	14.76593	137.42844	-86.41558	-0.111567795
1448101386353	-0.819793701171875	5.972137451171875	-5.0113372802734375	-9.431091718165147	0	-18.2724	-41.500854	16.755676	138.88715	-86.30566	0.08574963
1448101386393	-2.033782958984375	5.548431396484375	-3.5045623779296875	-9.706170623967324	0	-17.759705	-40.989685	14.932251	139.57578	-85.31967	0.13359863
1448101386433	-0.017608642578125	7.835968017578125	3.6008453369140625	-6.427368621133784	0	-17.759705	-41.329956	14.932251	141.96759	-79.35095	0.85353035
1448101386473	1.317779541015625	11.268463134765625	16.485794067382813	-4.414750897589578	0	-17.930603	-42.52014	11.117554	144.45248	-72.36294	1.6412389
1448101386514	0.270416259765625	12.932342529296875	19.427932739257813	-4.094271969475114	0	-16.908264	-42.17987	9.791565	145.06345	-69.264854	1.6787729
1448101386554	2.934051513671875	10.887603759765625	6.5548858642578125	-5.292561770465904	0	-17.759705	-43.029785	4.9819946	143.05896	-69.39365	1.165239
1448101386594	1.934295654296875	8.895233154296875	-0.4600677490234375	-6.5864352434121765	0	-17.590332	-43.199158	7.1380615	140.47046	-74.131355	-0.0026757268
1448101386634	0.736968994140625	8.126373291015625	-3.7949676513671875	-7.555294904330143	0	-17.419434	-43.36853	7.3043823	139.47687	-76.406494	-0.5350967
1448101386675	-1.374420166015625	6.541046142578125	-4.5543060302734375	-9.024091248426535	0	-15.713501	-43.029785	10.952759	139.87741	-81.17128	-1.6670864
1448101386715	-0.960235595703125	6.762420654296875	-4.5566864013671875	-8.690580888502996	0	-16.395569	-42.349243	12.278748	140.2702	-81.80496	-1.8446269
1448101386756	-0.465118408203125	6.714813232421875	-5.3921966552734375	-8.880588029804521	0	-16.908264	-44.558716	13.1073	141.61304	-82.29241	-1.7415242
1448101386797	1.532012939453125	8.854766845703125	2.8724517822265625	-6.165277222851177	0	-16.226196	-42.52014	14.76593	144.51892	-79.66778	-0.8699622
1448101386837	3.588653564453125	11.785003662109375	6.9190826416015625	-5.085081190531582	0	-15.713501	-42.689514	13.604736	147.15945	-77.249146	0.06935375
1448101386877	3.317291259765625	12.630035400390625	12.013076782226563	-4.518840224595786	0	-14.349365	-43.36853	11.2838745	149.26743	-75.32597	0.36252493
1448101386917	0.960723876953125	11.251800537109375	6.5763092041015625	-5.471991180491131	0	-16.226196	-42.52014	11.117554	150.3739	-76.240486	0.081418455
1448101386958	0.741729736328125	9.585540771484375	2.0702667236328125	-6.285586334669331	0	-14.691162	-43.7088	11.61499	150.83386	-79.50351	0.45995665
1448101386998	1.151153564453125	7.852630615234375	-0.1720428466796875	-6.83477542021609	0	-14.520264	-43.199158	15.760803	152.32416	-83.85566	1.5149306
1448101387038	-1.053070068359375	5.974517822265625	-3.1427459716796875	-8.472920210010452	0	-14.349365	-40.31067	17.253113	153.54431	-87.853874	2.2206185
1448101387078	-1.557708740234375	5.381805419921875	-5.0327606201171875	NaN	0	-15.37323	-41.329956	19.242859	153.68695	-90.40267	2.8512044
1448101387119	-0.862640380859375	6.926666259765625	-5.3279266357421875	-8.948637737913803	0	-14.520264	-39.120483	20.404053	153.25055	-90.81414	3.1429105
1448101387159	-4.614105224609375	8.319183349609375	-4.2472381591796875	NaN	0	-15.544128	-39.801025	22.393799	152.07959	-88.18415	1.8247501
1448101387199	-3.288238525390625	10.928070068359375	5.8360137939453125	-6.135653890764117	0	-14.520264	-40.820313	20.072937	152.66492	-82.70311	0.14804623
1448101387240	0.525115966796875	11.470794677734375	12.779556274414063	-4.829103950886016	0	-12.9852295	-42.010498	14.268494	157.84393	-77.428795	-0.38160384
1448101387280	2.427032470703125	11.313690185546875	10.737197875976563	-4.8590833974784315	0	-12.47406	-43.53943	13.1073	160.33643	-74.63179	-0.644167
1448101387320	0.910736083984375	10.094940185546875	3.0224151611328125	-6.061190619082599	0	-10.087585	-43.8797	13.439941	159.29388	-74.67204	-1.378086
1448101387360	-0.372283935546875	8.892852783203125	0.2421417236328125	-6.846412409442762	0	-10.258484	-45.06836	12.609863	158.20422	-75.94595	-2.482835
1448101387401	-2.943084716796875	7.267059326171875	0.0517120361328125	-7.714785800433553	0	-10.427856	-44.898987	13.1073	157.26947	-76.67623	-3.9358907
1448101387441	-2.245635986328125	7.574127197265625	0.4254302978515625	-7.407866686605394	0	-8.72345	-43.199158	12.112427	157.2586	-77.29985	-4.2306347
1448101387481	-1.069732666015625	9.180877685546875	0.6753692626953125	-6.842394493928168	0	-9.405518	-45.237732	13.1073	159.25299	-78.44436	-3.010465
1448101387522	-0.491302490234375	9.695037841796875	1.6417999267578125	-6.513343970123137	0	-10.598755	-44.72809	15.263367	160.99243	-78.533905	-1.8190477
1448101387562	2.015228271484375	10.604339599609375	4.7577056884765625	-5.637994290704587	0	-10.427856	-43.8797	14.434814	162.11847	-77.36314	-0.6506152
1448101387602	1.017852783203125	10.028289794921875	2.8415069580078125	-6.07169181042287	0	-9.405518	-44.218445	14.434814	163.10254	-77.33846	-0.030928811
1448101387643	1.160675048828125	10.090179443359375	2.6653594970703125	-6.076155791965545	0	-11.621094	-42.689514	15.596008	163.29346	-77.57146	-0.107532844
1448101387683	0.546539306640625	9.414154052734375	1.1443023681640625	-6.4741841004551866	0	-9.745789	-43.8797	15.760803	163.96063	-78.12568	-0.4293915
1448101387723	-1.095916748046875	8.478668212890625	0.4254302978515625	-7.012287604669923	0	-10.427856	-43.8797	15.4296875	165.14789	-78.004105	-1.9297007
1448101387764	-1.312530517578125	8.545318603515625	0.6563262939453125	-6.9978432679417	0	-8.894348	-44.049072	14.932251	165.40771	-77.42324	-2.6324146
1448101387804	-2.359893798828125	7.995452880859375	1.4204254150390625	-7.150289683589224	0	-7.359314	-44.218445	15.760803	166.36926	-75.59513	-3.9757059
1448101387844	-2.633636474609375	8.040679931640625	4.8743438720703125	-6.600139750893274	0	-6.1660767	-45.06836	14.268494	168.30823	-73.219406	-4.5922127
1448101387884	-3.024017333984375	8.178741455078125	6.2597198486328125	-6.428073106555674	0	-4.9713135	-46.93756	11.781311	171.29205	-71.14548	-4.010582
1448101387925	3.024505615234375	10.820953369140625	5.6955718994140625	-5.386076175407594	0	-6.677246	-44.898987	11.117554	176.02277	-71.26581	-0.38295996
1448101387965	4.069488525390625	10.537689208984375	2.1297760009765625	-5.715517779443736	0	-5.82428	-45.7489	11.61499	178.18616	-72.87812	1.5722011
1448101388005	2.517486572265625	10.080657958984375	2.0988311767578125	-5.972936516071368	0	-6.8481445	-44.049072	13.604736	178.22058	-72.997635	1.4723037
1448101388045	-1.391082763671875	8.381072998046875	2.0464630126953125	-6.800530598427522	0	-6.1660767	-45.40863	11.947632	175.86163	-70.905785	-1.4812598
1448101388086	-2.417022705078125	7.417022705078125	3.5080108642578125	-6.889750524237184	0	-5.142212	-44.049072	10.952759	176.35938	-69.463165	-3.1354544
1448101388126	-2.455108642578125	7.362274169921875	3.0224151611328125	-6.990648883862406	0	-4.119873	-44.389343	10.289001	176.85724	-69.00554	-3.5381813
1448101388166	-2.562225341796875	7.257537841796875	4.8767242431640625	-6.712729165080729	0	-3.7780762	-44.389343	9.625244	177.43079	-67.27926	-3.504256
1448101388206	0.118072509765625	8.838104248046875	5.7836456298828125	-5.967352366974056	0	-3.9489746	-45.237732	10.122681	176.61682	-66.379974	-2.228053
1448101388246	1.562957763671875	9.799774169921875	6.8690948486328125	-5.536725671377837	0	-4.460144	-44.389343	8.963013	174.73035	-66.04335	-1.0412205
1448101388287	2.581756591796875	9.780731201171875	4.8148345947265625	-5.662046660049443	0	-5.142212	-44.389343	8.630371	172.09204	-67.06572	-0.29308087
1448101388327	3.031646728515625	10.418670654296875	1.1704864501953125	-5.982884028198772	0	-7.017517	-44.558716	9.791565	169.5846	-68.94869	0.061571606
1448101388367	2.660308837890625	10.318695068359375	0.1516876220703125	-6.182970393056112	0	-6.8481445	-45.40863	11.2838745	168.3042	-69.577835	-0.28373235
1448101388407	1.353485107421875	9.585540771484375	0.3206939697265625	-6.451049397098471	0	-7.359314	-44.898987	9.791565	164.67212	-68.80118	-3.3533738
1448101388448	0.491790771484375	8.883331298828125	-0.7219085693359375	-6.864965505203516	0	-6.5063477	-44.72809	9.294128	165.41553	-67.43992	-5.5413504
1448101388488	-0.312774658203125	7.795501708984375	0.6848907470703125	-6.948695558306477	0	-4.801941	-44.389343	8.299255	167.36108	-66.495865	-6.4485383
1448101388528	-1.900482177734375	5.769805908203125	9.282791137695313	-6.180015536877148	0	-3.0960083	-45.40863	6.3095093	179.65527	-60.934326	-7.241515
1448101388568	-0.926910400390625	6.776702880859375	7.0761871337890625	-6.211328158503475	0	-1.2207031	-45.918274	6.1431885	190.27916	-59.279606	-4.2745786
1448101388608	-0.674591064453125	6.493438720703125	8.173538208007813	-6.065960233294602	0	1.1657715	-45.918274	4.1534424	198.40753	-58.653107	-1.3288932
1448101388649	0.434661865234375	7.819305419921875	10.287307739257813	-5.500641915622719	0	1.6784668	-44.72809	3.3248901	204.49661	-58.08405	1.0906062
1448101388689	0.889312744140625	7.869293212890625	4.7719879150390625	-6.128204443229315	0	3.7231445	-46.76819	2.9922485	205.31578	-58.230602	0.9870333
1448101388729	1.124969482421875	8.857147216796875	10.406326293945313	-5.291243647156509	0	2.0187378	-45.40863	2.330017	207.1715	-57.175713	1.3636864
1448101388770	1.496307373046875	8.888092041015625	4.2792510986328125	-5.977285372981829	0	2.1896362	-44.898987	1.8325806	209.1664	-57.84119	1.5656229
1448101388810	-0.272308349609375	8.842864990234375	0.9895782470703125	-6.714653220429673	0	4.0649414	-44.72809	1.9973755	210.54997	-59.593796	0.7242346
1448101388850	1.010711669921875	7.893096923828125	0.8277130126953125	-6.687061315122809	0	5.9402466	-45.237732	3.489685	212.9576	-58.551884	0.17376797
1448101388891	0.522735595703125	6.379180908203125	3.1271514892578125	-6.639729621666831	0	5.0872803	-43.7088	1.335144	218.42834	-54.094215	1.1558062
1448101388931	-2.638397216796875	5.807891845703125	9.651748657226563	-6.225923627283134	0	6.111145	-44.72809	-1.3183594	224.103	-48.34465	2.2050066
1448101388971	-0.127105712890625	5.681732177734375	7.9140777587890625	-6.136626672626514	0	6.6223145	-40.820313	-8.779907	225.63016	-45.438957	3.0753522
1448101389011	4.819305419921875	6.626739501953125	6.5525054931640625	-5.564130151546264	0	7.133484	-41.329956	-8.282471	226.58443	-45.056374	5.1406965
1448101389052	1.862884521484375	5.210418701171875	9.851699829101563	-5.692599142956116	0	5.5999756	-40.820313	-8.4487915	231.10187	-46.023804	7.04818
1448101389092	-1.114959716796875	4.179718017578125	8.863845825195313	-6.352818865362693	0	6.793213	-40.989685	-8.946228	234.32452	-47.370785	7.6804442
1448101389133	3.229217529296875	4.422515869140625	5.8740997314453125	-6.128851622271744	0	5.9402466	-41.160583	-9.112549	233.841	-48.3684	8.652797
1448101389173	2.543670654296875	5.772186279296875	8.559158325195313	-5.698678961471013	0	6.2820435	-40.820313	-9.443665	232.8999	-47.911232	10.002663
1448101389214	2.286590576171875	8.747650146484375	7.4237213134765625	-5.510326959778649	0	4.0649414	-40.989685	-9.277344	228.97125	-48.024033	11.110389
1448101389254	0.529876708984375	7.033782958984375	3.5960845947265625	-6.465979659001144	0	3.7231445	-42.689514	-7.6202393	223.80641	-48.637684	11.772264
1448101389294	-0.062835693359375	6.360137939453125	2.3416290283203125	-6.867394108196218	0	3.7231445	-42.689514	-7.6202393	220.2361	-48.208008	12.247212
1448101389334	3.100677490234375	6.098297119140625	6.5358428955078125	-5.83988630918706	0	0.8255005	-42.858887	-7.1228027	211.53006	-44.952633	13.260918
1448101389375	2.012847900390625	5.767425537109375	9.751724243164063	-5.6194771595922735	0	-1.2207031	-43.199158	-7.4539185	199.86523	-40.66671	8.782652
1448101389415	2.074737548828125	5.757904052734375	4.6029815673828125	-6.280182105174528	0	-3.9489746	-42.52014	-10.107422	184.90494	-39.671417	-1.8608665
1448101389455	-1.226837158203125	2.396820068359375	3.9412384033203125	-7.545798966411116	0	-0.7095337	-44.049072	-6.625366	179.58203	-43.118458	-1.9710834
1448101389495	4.079010009765625	5.798370361328125	3.6960601806640625	-6.122384947677753	0	-3.2669067	-44.218445	-1.4846802	176.47363	-49.517696	3.2706447
1448101389535	1.543914794921875	8.571502685546875	8.509170532226563	-5.490978606423483	0	-4.801941	-44.389343	-1.6494751	177.70514	-50.08877	8.81692
1448101389576	-5.906646728515625	16.041107177734375	11.513198852539063	-5.153895485230358	0	-9.405518	-44.898987	-1.8157959	177.87006	-48.482544	12.625809
1448101389616	5.797637939453125	10.332977294921875	12.627212524414063	-4.4439674600259	0	-12.9852295	-43.36853	-2.6443481	175.26202	-46.836685	15.166962
1448101389656	5.483428955078125	9.835479736328125	5.8812408447265625	-5.202237988153753	0	-13.327026	-42.349243	-2.6443481	171.7959	-45.63923	13.930351
1448101389696	4.671722412109375	7.616973876953125	3.0438385009765625	-5.890921924616496	0	-14.862061	-42.17987	-3.805542	169.3219	-44.490524	10.958132
1448101389736	2.988800048828125	6.686248779296875	6.4858551025390625	-5.786537322545323	0	-12.6449585	-43.36853	-4.966736	170.65881	-47.16548	8.534007
1448101389776	4.583648681640625	9.530792236328125	7.6593780517578125	-5.140357510616646	0	-10.940552	-43.36853	-2.6443481	172.00317	-50.65629	5.2871723
1448101389817	1.596282958984375	7.902618408203125	4.3839874267578125	-6.080625121670126	0	-8.552551	-44.389343	-1.6494751	170.62366	-51.577267	-1.1662891
1448101389857	-2.343231201171875	5.122344970703125	4.2221221923828125	-7.160615124398088	0	-4.2892456	-43.53943	-0.48980713	168.67627	-50.616707	-9.388596
1448101389897	-5.980438232421875	2.035003662109375	1.4894561767578125	NaN	0	-1.0498047	-44.389343	0.340271	167.50732	-50.014503	-15.408481
1448101389937	-4.814056396484375	4.441558837890625	3.7246246337890625	-7.975718497773459	0	1.6784668	-44.72809	-0.65460205	167.11133	-49.178127	-18.93563
1448101389977	-6.258941650390625	3.544158935546875	5.6812896728515625	-8.084244938461348	0	4.4052124	-43.36853	-1.6494751	167.3164	-47.727535	-21.078842
1448101390017	-4.933074951171875	5.517486572265625	8.716262817382813	-6.7568992870649485	0	5.2581787	-44.898987	-2.810669	166.01587	-46.608555	-21.807005
1448101390058	-2.616973876953125	6.571990966796875	9.918350219726563	-6.081903058023336	0	6.111145	-45.06836	-2.9769897	164.44263	-46.44984	-21.167301
1448101390098	-4.468902587890625	7.957366943359375	7.9116973876953125	-6.430187444762701	0	4.4052124	-43.36853	-2.9769897	162.97906	-47.4655	-21.668915
1448101390138	-4.271331787109375	6.217315673828125	5.3766021728515625	-7.10057227294872	0	4.9179077	-44.218445	-3.1417847	161.03998	-50.171944	-21.98851
1448101390178	-2.443206787109375	8.152557373046875	2.5320587158203125	-6.935814514848277	0	4.4052124	-44.049072	-3.3081055	160.18329	-54.087555	-20.4277
1448101390218	-2.469390869140625	7.738372802734375	3.3271026611328125	-6.874691987335455	0	1.8478394	-45.578003	1.499939	162.04755	-56.705387	-18.528154
1448101390259	-3.473907470703125	7.209930419921875	4.1078643798828125	-7.005905920115236	0	2.3605347	-46.087646	4.319763	163.68976	-57.415833	-17.949688
1448101390299	-2.981170654296875	7.888336181640625	5.3599395751953125	-6.602367626632072	0	3.3828735	-46.427917	4.319763	164.61914	-57.601215	-17.257582
1448101390339	-2.167083740234375	8.521514892578125	5.2194976806640625	-6.404552258858231	0	3.3828735	-45.40863	4.319763	164.70013	-57.88932	-16.658312
1448101390379	-2.569366455078125	7.605072021484375	5.3289947509765625	-6.587174536134931	0	1.3366699	-45.7489	3.3248901	164.33636	-57.72358	-16.859545
1448101390419	-2.100433349609375	8.888092041015625	4.8172149658203125	-6.400007324433025	0	1.6784668	-45.40863	3.3248901	163.28943	-57.12134	-17.3952
1448101390460	-3.650054931640625	7.117095947265625	4.9314727783203125	-6.908581057007163	0	3.894043	-44.898987	4.1534424	162.8465	-56.40674	-18.25591
1448101390500	-3.690521240234375	6.726715087890625	5.7622222900390625	-6.840387577111963	0	3.894043	-46.258545	3.489685	162.51477	-55.13381	-19.41924
1448101390540	-3.788116455078125	7.145660400390625	5.3980255126953125	-6.847618847980303	0	3.3828735	-44.049072	1.0025024	161.72241	-54.423836	-20.02159
1448101390580	-3.545318603515625	7.619354248046875	5.5503692626953125	-6.704277497869287	0	3.894043	-45.918274	1.499939	161.07343	-54.2582	-20.26591
1448101390620	-4.299896240234375	6.026885986328125	5.5575103759765625	-7.107618688084278	0	3.553772	-45.237732	1.1688232	160.8357	-53.431927	-21.024834
1448101390661	-4.111846923828125	6.443450927734375	5.6098785400390625	-6.988536383978297	0	3.894043	-44.898987	2.1636963	159.9248	-53.091927	-21.408901
1448101390701	-3.590545654296875	6.912384033203125	5.0171661376953125	-6.918866543359384	0	2.871704	-44.898987	1.1688232	158.3825	-53.575516	-21.160746
1448101390741	-3.890472412109375	6.795745849609375	5.4575347900390625	-6.914747958912997	0	2.1896362	-44.218445	0.5050659	156.80347	-53.93971	-20.636152
1448101390781	-3.090667724609375	8.259674072265625	4.0602569580078125	-6.768629739173857	0	2.5299072	-44.218445	1.1688232	155.31335	-54.1738	-19.830698
1448101390821	-1.857635498046875	8.554840087890625	3.5603790283203125	-6.6038537380922495	0	0.31433105	-45.40863	0.0076293945	154.63666	-54.834557	-18.331612
1448101390862	-1.995697021484375	7.659820556640625	3.3247222900390625	-6.808459605489544	0	-0.19836426	-46.59729	0.8377075	154.71936	-54.75339	-17.590027
1448101390902	-2.993072509765625	7.145660400390625	6.8405303955078125	-6.443255234339585	0	-0.02746582	-46.087646	0.6713867	154.19226	-53.206093	-17.585768
1448101390942	-4.216583251953125	6.155426025390625	7.0357208251953125	-6.810842399887331	0	-0.19836426	-46.59729	-0.82092285	152.95624	-53.232513	-17.835146
1448101390982	-2.869293212890625	8.614349365234375	3.5699005126953125	-6.754558606925675	0	0.65460205	-45.06836	1.0025024	150.24713	-55.040443	-18.467903
1448101391022	-2.921661376953125	8.331085205078125	4.1816558837890625	-6.7096531628854095	0	-1.7318726	-46.76819	-0.32348633	147.58722	-56.77634	-17.474895
1448101391062	-3.497711181640625	8.071624755859375	4.5077667236328125	-6.793017365020238	0	-2.4139404	-45.7489	1.335144	146.54523	-56.754253	-16.879963
1448101391103	-2.833587646484375	8.485809326171875	4.7005767822265625	-6.5890235111012405	0	-3.6087036	-45.237732	0.5050659	145.3695	-56.6982	-15.946261
1448101391143	-3.369171142578125	10.332977294921875	6.3739776611328125	-6.154506927051754	0	-3.9489746	-44.898987	-0.15716553	144.54614	-57.001484	-14.6380205
1448101391183	-2.412261962890625	8.607208251953125	5.3575592041015625	-6.407702312048204	0	-4.6310425	-45.918274	-0.15716553	143.50867	-58.545185	-12.943537
1448101391223	-2.074249267578125	7.752655029296875	4.1745147705078125	-6.667663789716878	0	-6.1660767	-45.06836	1.6662598	143.18353	-60.40024	-10.877358
1448101391263	-0.622222900390625	6.317291259765625	5.2194976806640625	-6.502879969483027	0	-7.699585	-45.237732	1.1688232	143.53717	-61.696056	-8.93649
1448101391303	-0.215179443359375	6.879058837890625	3.7674713134765625	-6.576839837386093	0	-8.21228	-45.7489	1.6662598	144.768	-61.735867	-6.846557
1448101391344	0.772674560546875	7.719329833984375	5.0695343017578125	-6.124000551744859	0	-11.280823	-45.06836	2.6611328	144.20471	-61.167286	-6.1478806
1448101391384	-0.698394775390625	7.866912841796875	4.8005523681640625	-6.34696556344889	0	-10.769653	-45.578003	3.8223267	144.0935	-61.098038	-5.797133
1448101391425	-0.317535400390625	8.581024169921875	3.8388824462890625	-6.3277537522016996	0	-11.621094	-45.06836	1.9973755	144.45337	-61.310272	-5.495488
1448101391465	-1.176849365234375	8.871429443359375	6.0788116455078125	-6.095347957409412	0	-10.769653	-44.898987	4.1534424	144.33646	-60.994957	-5.296354
1448101391505	-1.343475341796875	7.762176513671875	5.5670318603515625	-6.344558256718073	0	-11.791992	-45.237732	3.489685	144.29053	-60.880985	-5.1836762
1448101391545	-0.962615966796875	8.478668212890625	3.4413604736328125	-6.496401709908216	0	-10.940552	-44.389343	2.6611328	144.57135	-61.22174	-5.084237
1448101391585	-0.769805908203125	8.440582275390625	3.9626617431640625	-6.395817375681709	0	-11.280823	-44.389343	4.9819946	144.56439	-61.603573	-5.120192
1448101391626	-0.812652587890625	8.642913818359375	4.2006988525390625	-6.338032560406557	0	-10.769653	-44.898987	4.1534424	144.46573	-61.48033	-4.9664407
1448101391666	-0.434173583984375	8.373931884765625	4.4054107666015625	-6.2930307225582105	0	-11.109924	-45.918274	2.1636963	144.32642	-61.62942	-4.80329
1448101391706	-1.048309326171875	8.462005615234375	3.7793731689453125	-6.460995501855036	0	-12.303162	-44.72809	4.650879	144.406	-62.028606	-4.664356
1448101391746	-1.055450439453125	8.764312744140625	4.9267120361328125	-6.251944694513923	0	-12.815857	-45.237732	4.1534424	144.32141	-62.19548	-4.6110444
1448101391786	-0.791229248046875	8.550079345703125	4.8719635009765625	-6.252614406524302	0	-12.303162	-44.389343	3.3248901	143.96933	-62.570423	-4.630235
1448101391827	-0.331817626953125	7.831207275390625	3.6674957275390625	-6.464910999512886	0	-12.303162	-43.36853	5.645752	143.336	-62.823708	-4.7922187
1448101391867	-0.891204833984375	8.350128173828125	4.4744415283203125	-6.352129726837403	0	-11.280823	-44.72809	5.645752	142.91107	-62.585373	-5.05745
1448101391907	-0.776947021484375	8.309661865234375	4.4196929931640625	-6.349374546415281	0	-12.6449585	-44.72809	4.650879	142.81628	-62.6353	-5.3144546
1448101391947	-0.981658935546875	8.545318603515625	3.4008941650390625	-6.495323232194594	0	-10.940552	-46.087646	3.9871216	142.78027	-63.225857	-5.583889
1448101391987	-1.305389404296875	8.797637939453125	4.6220245361328125	-6.3260435687251	0	-11.280823	-44.389343	4.319763	142.89044	-63.50177	-5.5972342
1448101392027	-0.815032958984375	8.566741943359375	4.1935577392578125	-6.350407481688438	0	-10.598755	-44.049072	4.319763	143.12097	-63.856197	-5.5569234
1448101392068	-1.288726806640625	8.395355224609375	3.5175323486328125	-6.547127532467629	0	-11.621094	-44.72809	4.319763	143.26514	-64.43477	-5.572004
1448101392108	-1.050689697265625	8.533416748046875	3.3485260009765625	-6.515513089607353	0	-10.598755	-45.40863	5.645752	143.71725	-64.81066	-5.228073
1448101392148	-1.226837158203125	8.716705322265625	3.0890655517578125	-6.55407271866625	0	-11.791992	-44.218445	7.470703	144.20847	-64.754395	-4.8997264
1448101392188	-0.622222900390625	8.683380126953125	4.2483062744140625	-6.298115497971159	0	-11.109924	-45.237732	7.1380615	144.58044	-64.524574	-4.632137
1448101392229	-0.527008056640625	8.719085693359375	4.0245513916015625	-6.311370532808995	0	-11.621094	-44.389343	6.3095093	144.71756	-64.34496	-4.274674
1448101392269	-0.486541748046875	8.707183837890625	4.6315460205078125	-6.2216051450034735	0	-12.303162	-44.72809	5.314636	144.56873	-63.908623	-4.068568
1448101392309	-0.584136962890625	8.661956787109375	4.5767974853515625	-6.249267107288057	0	-13.156128	-45.578003	5.1483154	144.73535	-63.877716	-3.8172324
1448101392349	-0.724578857421875	8.481048583984375	3.4318389892578125	-6.4617070696029275	0	-12.815857	-46.258545	6.1431885	144.85428	-64.34356	-3.6708748
1448101392390	-0.657928466796875	8.626251220703125	4.7315216064453125	-6.242915900595065	0	-12.47406	-43.199158	3.489685	144.9208	-64.49543	-3.549498
1448101392430	-0.479400634765625	8.626251220703125	4.4077911376953125	-6.263347013882185	0	-12.133789	-43.8797	5.480957	145.11786	-64.77666	-3.471261
1448101392470	-0.684112548828125	8.650054931640625	3.9888458251953125	-6.3490303032320785	0	-12.815857	-43.199158	6.806946	145.12405	-65.31094	-3.6775873
1448101392510	-0.505584716796875	8.535797119140625	3.7365264892578125	-6.376331950473613	0	-12.133789	-44.558716	5.8120728	144.73376	-65.86963	-4.325751
1448101392550	-0.310394287109375	7.962127685546875	4.0031280517578125	-6.392678288801086	0	-12.6449585	-44.72809	7.3043823	144.84045	-66.46327	-4.878191
1448101392590	-0.188995361328125	7.695526123046875	2.9272003173828125	-6.576471352546223	0	-12.815857	-44.898987	6.1431885	146.17142	-67.445076	-5.190646
1448101392631	0.151397705078125	7.833587646484375	4.4601593017578125	-6.27883234136369	0	-11.621094	-44.389343	7.3043823	147.40161	-68.40907	-5.9695497
1448101392671	-0.469879150390625	8.809539794921875	2.8438873291015625	-6.4624187887566835	0	-9.916687	-45.06836	8.299255	149.12622	-69.583084	-7.1957994
1448101392711	-4.214202880859375	11.175628662109375	2.4749298095703125	-6.734734835182326	0	-7.1884155	-46.427917	10.620117	151.55164	-71.37647	-8.301879
1448101392751	-2.866912841796875	10.685272216796875	3.9721832275390625	-6.372864045891259	0	-7.1884155	-46.427917	10.620117	153.39441	-71.99164	-8.191249
1448101392791	0.208526611328125	8.476287841796875	2.8081817626953125	-6.4164678173527925	0	-6.8481445	-45.40863	10.952759	155.93494	-72.53421	-6.7965903
1448101392832	-5.892364501953125	8.707183837890625	1.3418731689453125	-7.767803172240349	0	-7.5302124	-45.06836	14.268494	159.4472	-72.51507	-5.5025067
1448101392872	-0.603179931640625	9.347503662109375	-1.5383758544921875	-7.122210334549664	0	-7.5302124	-45.06836	14.268494	161.20642	-72.619865	-4.5517135
1448101392912	0.603668212890625	8.933319091796875	5.5075225830078125	-5.927874708400282	0	-6.677246	-44.558716	13.439941	166.43628	-71.46499	-1.1498709
1448101392952	2.974517822265625	11.161346435546875	2.5296783447265625	-5.724254766860223	0	-7.5302124	-43.36853	12.278748	167.5473	-70.14834	-0.33656332
1448101392992	1.448699951171875	10.792388916015625	3.2128448486328125	-5.87545084029869	0	-7.699585	-45.237732	12.112427	169.18372	-68.06225	-0.53632575
1448101393033	1.955718994140625	11.908782958984375	4.4030303955078125	-5.532546613736228	0	-6.335449	-45.237732	9.791565	171.31232	-65.92806	-1.2586391
1448101393073	3.810028076171875	13.777374267578125	0.7158355712890625	-5.5283716382784025	0	-3.7780762	-45.40863	8.963013	174.21857	-66.670586	-1.6494138
1448101393113	4.121856689453125	11.404144287109375	-2.6381072998046875	-6.21662873594261	0	-4.9713135	-45.237732	9.460449	180.99889	-69.846375	-1.782932
1448101393153	3.207794189453125	5.731719970703125	-5.7516326904296875	-8.021136063168298	0	-1.0498047	-45.06836	12.278748	190.26068	-71.3639	-3.5437531
1448101393193	2.415130615234375	2.996673583984375	-2.0406341552734375	-7.970525370812691	0	-0.8804321	-43.199158	13.1073	194.92632	-69.772545	-4.951882
1448101393234	1.391571044921875	0.871002197265625	6.8595733642578125	-6.786310840590703	0	7.8155518	-45.40863	8.630371	208.70032	-60.10754	-7.6086464
1448101393274	-1.957611083984375	-0.400115966796875	7.9021759033203125	-7.451934662305689	0	8.49762	-43.7088	3.9871216	219.47433	-55.46681	-6.92216
1448101393314	-5.206817626953125	-1.418914794921875	12.446304321289063	-7.394013856581683	0	11.907959	-42.349243	1.9973755	223.51782	-52.39197	-5.9995866
1448101393354	1.079742431640625	5.341339111328125	19.427932739257813	-4.7224074109819005	0	11.737061	-40.48004	-5.4641724	226.86172	-45.137016	0.55655825
1448101393394	5.540557861328125	8.600067138671875	9.646987915039063	-4.929345350605623	0	8.8394165	-40.989685	-8.615112	224.28474	-47.600544	3.751156
1448101393434	4.467010498046875	11.013763427734375	8.244949340820313	-4.935694204708782	0	7.98645	-40.820313	-5.131531	222.86179	-51.1814	4.643447
1448101393475	6.076141357421875	12.139678955078125	5.5860748291015625	-4.927881403728888	0	7.475281	-42.010498	-3.6392212	222.03654	-53.985523	3.7939556
1448101393515	2.141387939453125	9.285614013671875	4.2030792236328125	-5.853110253363768	0	6.9641113	-42.52014	-1.8157959	222.7796	-57.05996	0.10386333
1448101393555	-2.581268310546875	5.676971435546875	3.7817535400390625	-7.184109453775083	0	11.225891	-43.36853	1.9973755	225.85782	-61.124393	-4.4737487
1448101393595	-4.449859619140625	4.786712646484375	1.4109039306640625	-8.484572406487741	0	15.1474	-41.8396	4.1534424	227.92871	-65.065544	-8.712961
1448101393635	-5.566253662109375	4.903350830078125	1.7346343994140625	-8.771355310381738	0	16.853333	-41.500854	5.8120728	228.29807	-67.74569	-11.556459
1448101393675	-6.644561767578125	4.808135986328125	2.9343414306640625	-8.758785298149494	0	18.217468	-39.460754	8.465576	228.49896	-69.9326	-11.7123995
1448101393716	-1.372039794921875	7.345611572265625	2.0821685791015625	-6.968336383553263	0	18.217468	-38.441467	10.122681	227.8303	-72.676384	-8.141719
1448101393756	5.602447509765625	13.765472412109375	2.2059478759765625	-5.161832212709491	0	18.04657	-39.29138	10.289001	227.09901	-75.41131	-2.7899675
1448101393796	6.154693603515625	16.262481689453125	2.3416290283203125	-4.830778025563106	0	11.907959	-42.349243	11.61499	228.25212	-78.76321	-1.0424367
1448101393836	2.905487060546875	13.267974853515625	-1.1122894287109375	-5.925727355174926	0	11.907959	-42.349243	13.273621	230.81104	-82.89085	-3.4886677
1448101393876	-1.731475830078125	8.104949951171875	2.4035186767578125	-6.844001006235983	0	14.978027	-39.631653	14.599609	231.70033	-83.99967	-9.028117
1448101393917	-6.099456787109375	4.401092529296875	1.9988555908203125	-9.258429102370608	0	19.239807	-38.441467	16.42456	233.69221	-85.26263	-14.818852
1448101393957	-7.987091064453125	2.558685302734375	0.9776763916015625	NaN	0	24.014282	-33.683777	16.42456	234.83325	-86.75281	-18.588167
1448101393997	-9.308197021484375	1.601776123046875	1.0776519775390625	NaN	0	22.650146	-35.043335	17.088318	232.80917	-87.02104	-18.021252
1448101394037	-0.019989013671875	7.328948974609375	-1.0242156982421875	-7.299660778021272	0	22.650146	-36.402893	16.755676	230.11104	-87.15218	-11.754437
1448101394077	4.576507568359375	12.377716064453125	-0.1172943115234375	-5.703317250628581	0	17.875671	-37.76245	17.75055	228.38847	-86.6238	-4.079279
1448101394118	9.632415771484375	18.685699462890625	-0.8242645263671875	-4.563142103915793	0	14.465332	-39.460754	17.088318	227.90904	-86.42759	0.037782904
1448101394158	4.431304931640625	14.893768310546875	-0.4386444091796875	-5.460748088923437	0	12.078857	-42.52014	18.08319	228.66208	-86.25881	-1.9638163
1448101394198	-1.986175537109375	8.400115966796875	2.2583160400390625	-6.861730483412455	0	13.954163	-40.989685	16.921997	230.04622	-85.53034	-7.8769364
1448101394238	-7.480072021484375	3.777435302734375	2.8629302978515625	NaN	0	17.704773	-39.970398	16.25824	231.20685	-85.147156	-14.192046
1448101394278	-7.263458251953125	2.858612060546875	1.8465118408203125	NaN	0	20.263672	-35.72235	17.088318	231.0017	-85.61722	-17.47301
1448101394319	-5.252044677734375	4.560577392578125	0.7824859619140625	-9.504906982583599	0	21.79718	-35.89325	16.25824	228.93259	-86.38099	-16.873884
1448101394359	0.482269287109375	10.759063720703125	-1.5502777099609375	-6.693554016103912	0	21.28601	-36.062622	17.088318	225.8497	-86.892136	-13.322187
1448101394399	1.301116943359375	13.544097900390625	-0.2815399169921875	-5.990361678464273	0	19.410706	-37.252808	19.5755	224.24387	-86.95702	-10.575051
1448101394439	2.805511474609375	14.658111572265625	-2.6761932373046875	-5.961157267417662	0	18.899536	-39.460754	19.40918	224.60262	-87.45738	-9.937631
1448101394480	-0.853118896484375	10.882843017578125	-0.3886566162109375	-6.701593155420939	0	17.364502	-38.272095	18.911743	225.96324	-86.38505	-12.261665
1448101394520	-4.964019775390625	6.029266357421875	2.5606231689453125	-7.902428329436507	0	19.921875	-37.08191	17.75055	227.78287	-83.8218	-15.760405
1448101394560	-7.508636474609375	4.136871337890625	2.9605255126953125	NaN	0	23.332214	-35.043335	14.102173	228.80754	-81.55261	-18.144127
1448101394600	-8.896392822265625	3.032379150390625	3.3318634033203125	NaN	0	23.332214	-35.043335	14.102173	228.56236	-80.16718	-18.773344
1448101394640	-1.022125244140625	5.503204345703125	1.4537506103515625	-7.3704494069713045	0	22.991943	-35.72235	13.439941	224.96074	-80.14603	-11.979785
1448101394681	2.422271728515625	9.878326416015625	2.1631011962890625	-6.003482944107516	0	16.342163	-38.272095	12.942505	222.07787	-79.769554	-3.7081537
1448101394721	8.399383544921875	14.305816650390625	1.3823394775390625	-4.89869416626077	0	12.760925	-41.8396	14.102173	219.90007	-79.670135	3.345909
1448101394761	11.458160400390625	18.538116455078125	-0.3434295654296875	-4.3611571998193694	0	8.328247	-42.17987	14.434814	219.32672	-79.72749	5.8656836
1448101394801	2.191375732421875	11.761199951171875	1.6251373291015625	-5.859738840458748	0	7.98645	-43.53943	13.439941	220.35338	-78.3995	1.0924729
1448101394841	-0.593658447265625	7.688385009765625	1.5608673095703125	-6.864560932946281	0	12.078857	-42.858887	12.445068	222.14958	-76.97577	-5.065623
1448101394882	-6.456512451171875	3.827423095703125	3.9102935791015625	-8.674697078529782	0	14.465332	-42.17987	13.439941	224.3326	-75.107056	-11.33304
1448101394922	-5.399627685546875	4.293975830078125	3.3818511962890625	-8.297892161874833	0	19.581604	-39.801025	12.112427	225.98112	-74.474754	-14.616801
1448101394962	-7.180145263671875	4.239227294921875	3.1509552001953125	-9.348301809467555	0	20.263672	-38.101196	11.450195	225.83997	-74.70016	-15.369624
1448101395002	-3.935699462890625	6.767181396484375	2.4701690673828125	-7.504068566777738	0	20.774841	-37.931824	10.289001	223.82516	-75.3166	-13.1383095
1448101395042	1.717681884765625	10.916168212890625	1.4156646728515625	-6.058331763799739	0	19.581604	-40.141296	12.112427	221.0677	-75.83083	-8.811024
1448101395083	-0.824554443359375	10.387725830078125	3.3437652587890625	-6.213977469659829	0	14.807129	-39.460754	10.455322	219.04794	-75.99117	-5.0870504
1448101395123	5.131134033203125	12.206329345703125	1.0538482666015625	-5.51809074321766	0	13.954163	-40.31067	12.942505	217.18794	-76.78773	-1.6721891
1448101395164	6.211822509765625	14.841400146484375	0.9919586181640625	-5.111370370427654	0	10.88562	-43.36853	12.942505	216.81519	-77.33764	-0.3924316
1448101395204	-0.743621826171875	10.240142822265625	1.1300201416015625	-6.546762406239337	0	10.88562	-42.349243	13.273621	218.50513	-77.47059	-3.9519207
1448101395244	-2.033782958984375	7.726470947265625	1.0014801025390625	-7.219290955679953	0	12.419128	-42.17987	12.776184	220.5964	-77.05806	-8.188309
1448101395284	-5.909027099609375	5.089019775390625	3.1485748291015625	-8.280635549272915	0	17.704773	-40.65094	13.273621	221.34192	-76.392815	-9.9731045
1448101395324	-7.965667724609375	3.870269775390625	4.1340484619140625	-9.610002663559975	0	18.728638	-40.65094	11.947632	222.65474	-74.56673	-12.64608
1448101395365	-2.407501220703125	5.486541748046875	2.8581695556640625	-7.369960904235546	0	17.875671	-39.460754	11.781311	220.57202	-74.43153	-10.329101
1448101395405	1.010711669921875	9.878326416015625	3.3866119384765625	-6.028286881105	0	16.682434	-39.631653	11.61499	217.30194	-74.04115	-5.981211
1448101395446	2.653167724609375	12.184906005859375	3.6793975830078125	-5.5034068468314645	0	13.613892	-43.029785	10.620117	214.95033	-73.7178	-2.7796223
1448101395486	6.423675537109375	15.157989501953125	0.9205474853515625	-5.062950294929645	0	12.078857	-42.52014	11.117554	213.64436	-74.232735	-1.0931458
1448101395526	3.522003173828125	13.270355224609375	1.0110015869140625	-5.587197200390609	0	11.567688	-43.36853	12.278748	214.44533	-74.320404	-3.152876
1448101395566	-0.557952880859375	9.318939208984375	2.6034698486328125	-6.435479091940217	0	12.590027	-41.329956	12.278748	216.69746	-73.193634	-7.639235
1448101395606	-5.090179443359375	5.293731689453125	4.1364288330078125	-7.723337875565928	0	13.613892	-42.349243	10.289001	218.79437	-70.96472	-12.9434
1448101395646	-7.487213134765625	2.853851318359375	4.4911041259765625	NaN	0	19.750977	-37.931824	9.625244	219.97012	-69.58955	-16.926731
1448101395687	-9.143951416015625	1.109039306640625	3.9602813720703125	NaN	0	21.28601	-37.42218	8.796692	219.58911	-69.98206	-17.86177
1448101395727	-3.335845947265625	4.529632568359375	2.5249176025390625	-7.878205791433501	0	21.968079	-37.42218	9.127808	216.51483	-71.469406	-14.809069
1448101395767	0.670318603515625	9.775970458984375	2.8486480712890625	-6.160377690020935	0	17.024231	-39.631653	10.620117	212.83841	-72.629745	-9.48517
1448101395807	4.881195068359375	14.570037841796875	2.6510772705078125	-5.105290588712112	0	15.660095	-40.65094	11.61499	210.93944	-74.13311	-4.547316
1448101395847	7.332977294921875	17.478851318359375	-0.5290985107421875	-4.87884898127563	0	13.783264	-41.500854	12.112427	210.76451	-76.20903	-2.1814852
1448101395888	1.891448974609375	11.989715576171875	0.9752960205078125	-5.952192059564911	0	12.078857	-41.500854	13.1073	211.67116	-76.08633	-5.041121
1448101395928	-4.133270263671875	6.200653076171875	2.4987335205078125	-7.669752711818691	0	14.63623	-41.329956	12.609863	213.12134	-74.69156	-10.348234
1448101395968	-6.949249267578125	3.441802978515625	3.0414581298828125	NaN	0	14.63623	-39.631653	13.273621	214.2271	-73.41278	-14.646704
1448101396008	-9.379608154296875	1.637481689453125	3.6936798095703125	NaN	0	19.410706	-37.591553	12.609863	214.04752	-73.002884	-15.621438
1448101396048	-3.800018310546875	3.639373779296875	3.3866119384765625	-8.01050217214469	0	18.217468	-40.141296	11.781311	211.4707	-73.37756	-12.202107
1448101396088	5.204925537109375	11.339874267578125	3.0366973876953125	-5.381501448285833	0	15.660095	-40.989685	11.61499	207.83107	-73.95323	-5.510891
1448101396129	5.616729736328125	15.219879150390625	4.1459503173828125	-4.808344383877355	0	10.032654	-43.53943	12.112427	206.96344	-75.709656	-0.9859404
1448101396169	8.208953857421875	17.300323486328125	-0.1839447021484375	-4.774171894045423	0	10.714722	-42.52014	12.776184	208.04697	-79.21692	-0.34250188
1448101396209	-0.384185791015625	10.306793212890625	-0.7242889404296875	-6.7737270251714605	0	8.8394165	-43.029785	14.932251	209.06825	-80.8768	-4.929232
1448101396250	-6.047088623046875	4.251129150390625	1.7560577392578125	NaN	0	13.272095	-41.329956	15.927124	209.76219	-80.25982	-10.90061
1448101396290	-8.770233154296875	2.380157470703125	2.7320098876953125	NaN	0	19.068909	-38.95111	15.927124	210.4277	-79.213326	-14.655639
1448101396330	-9.179656982421875	1.675567626953125	2.6344146728515625	NaN	0	19.068909	-38.95111	15.927124	209.50543	-79.01215	-15.303236
1448101396370	2.198516845703125	9.654571533203125	2.2845001220703125	-6.046601529125768	0	17.704773	-39.970398	15.927124	204.77164	-79.75401	-8.24822
1448101396410	2.848358154296875	12.653839111328125	2.3749542236328125	-5.578461935880308	0	11.907959	-43.029785	16.25824	203.06183	-81.06059	-3.1768484
1448101396451	8.589813232421875	17.764495849609375	-0.8932952880859375	-4.760709217001886	0	9.521484	-41.670227	17.585754	202.85393	-83.80306	-0.2990501
1448101396491	2.112823486328125	12.810943603515625	-2.1810760498046875	-6.23690939155239	0	8.49762	-42.689514	19.5755	203.3894	-85.56247	-2.7266674
1448101396531	-2.357513427734375	7.785980224609375	-0.3148651123046875	-7.545272583509784	0	10.372925	-41.160583	20.404053	203.99582	-84.83766	-7.796805
1448101396571	-5.809051513671875	5.917388916015625	0.6277618408203125	-8.365680790278194	0	10.372925	-41.160583	20.404053	204.30055	-83.97258	-10.221668
1448101396611	-7.541961669921875	3.608428955078125	1.8750762939453125	NaN	0	16.511536	-39.460754	20.072937	204.50714	-81.49509	-14.587581
1448101396652	-5.897125244140625	4.479644775390625	1.4442291259765625	-9.643049832691732	0	17.5354	-39.120483	18.414307	203.42609	-80.72867	-13.351308
1448101396692	-0.243743896484375	8.714324951171875	2.4487457275390625	-6.502159535681333	0	15.318298	-39.970398	16.590881	201.67096	-80.011665	-8.9677
1448101396732	3.674346923828125	13.041839599609375	3.4223175048828125	-5.319005541014171	0	13.101196	-42.17987	18.08319	200.84152	-79.98035	-4.2262073
1448101396772	3.329193115234375	13.417938232421875	2.6772613525390625	-5.39928872211239	0	11.737061	-41.8396	16.755676	200.7981	-80.526245	-2.6364443
1448101396812	2.160430908203125	12.073028564453125	0.8705596923828125	-5.920211037860587	0	9.521484	-41.670227	18.247986	199.94398	-81.53986	-2.0515919
1448101396852	-0.198516845703125	9.823577880859375	1.5346832275390625	-6.465979659001144	0	9.350586	-42.52014	18.745422	199.61975	-81.58222	-3.8391955
1448101396893	-3.107330322265625	7.662200927734375	0.6610870361328125	-7.522752885676985	0	10.714722	-41.500854	18.08319	199.67198	-82.03083	-6.399696
