timestamp	accel_x	accel_y	accel_z	accel_mag	temperature	mag_x	mag_y	mag_z	azimuth	pitch	roll
1448134986985	-3.5345306396484375	2.162261962890625	8.018280029296875	-7.228614089926195	0	-12.6449585	-17.160034	-33.947754	108.8367	-12.486517	-21.321846
1448134987026	-2.3062591552734375	2.69427490234375	9.3358154296875	-6.688294181649622	0	-13.694763	-17.160034	-33.947754	109.50217	-11.970564	-19.719213
1448134987066	-2.6835479736328125	1.730224609375	8.53839111328125	-7.052499829522636	0	-13.394165	-17.76123	-33.198547	111.22461	-11.876825	-17.318584
1448134987107	-2.8239898681640625	2.10394287109375	9.644073486328125	-6.819289087279696	0	-15.045166	-17.311096	-33.04901	112.45517	-11.4261675	-15.466085
1448134987147	-1.5254974365234375	2.968017578125	10.308197021484375	-6.655074393652981	0	-15.945435	-16.560364	-32.748413	112.89447	-11.099053	-14.47402
1448134987187	-1.1255950927734375	2.52288818359375	11.112762451171875	-6.269644311559418	0	-17.445374	-17.610168	-32.148743	114.70737	-10.670326	-11.333935
1448134987228	-1.5850067138671875	2.2015380859375	8.864501953125	-6.727471336693558	0	-17.294312	-17.610168	-31.848145	116.79523	-10.91798	-10.3644
1448134987268	-1.4993133544921875	2.68475341796875	9.615509033203125	-6.520120257680007	0	-17.144775	-18.960571	-31.549072	117.909515	-11.016301	-9.893565
1448134987309	-0.1924896240234375	2.507415771484375	9.4691162109375	-6.373810702883377	0	-18.345642	-20.610046	-30.497742	122.12152	-11.657615	-6.7754903
1448134987349	-0.7530670166015625	1.617156982421875	9.4405517578125	-6.596515620480854	0	-18.045044	-21.96045	-29.148865	125.77762	-12.661234	-4.880951
1448134987390	-0.4210052490234375	2.13250732421875	9.351287841796875	-6.480522743381899	0	-16.99524	-23.460388	-28.547668	128.966	-13.370024	-4.13183
1448134987430	-1.5612030029296875	2.03253173828125	10.370086669921875	-6.513969531017269	0	-16.99524	-22.56012	-28.69873	131.8229	-13.346317	-4.4039664
1448134987471	-1.5933380126953125	1.44219970703125	10.196319580078125	-6.63718660405209	0	-15.194702	-25.71106	-28.09906	134.42987	-13.122958	-4.973981
1448134987511	0.4799652099609375	2.29437255859375	9.73095703125	-6.2703173755757735	0	-13.694763	-25.410461	-27.648926	136.7298	-13.578255	-5.562607
1448134987551	-0.5316925048828125	2.157501220703125	10.448638916015625	-6.331769409620673	0	-13.545227	-25.860596	-27.798462	138.95886	-14.090564	-6.3810363
1448134987592	-1.3862457275390625	2.51336669921875	10.96875	-6.3286881305473415	0	-12.045288	-27.810669	-28.248596	140.9281	-14.34046	-7.802467
1448134987632	1.3119049072265625	2.293182373046875	9.42388916015625	-6.197032651905538	0	-9.645081	-27.960205	-27.497864	143.51617	-14.595553	-8.0570135
1448134987672	-0.1746368408203125	0.479339599609375	11.968505859375	-6.3032860520124565	0	-8.595276	-27.360535	-27.648926	152.5968	-13.748603	-7.158034
1448134987713	-0.8887481689453125	0.5447998046875	10.2022705078125	-6.666803486919146	0	-4.8446655	-29.01001	-26.599121	160.10913	-13.984629	-8.566199
1448134987753	-1.5028839111328125	0.584075927734375	8.996612548828125	-6.964452121118661	0	-1.8447876	-29.760742	-25.997925	164.11798	-14.785859	-9.336749
1448134987793	-1.9563446044921875	2.40625	5.42010498046875	-7.383789570771876	0	3.2546997	-30.06134	-23.898315	176.16003	-16.575422	-11.305876
1448134987834	-1.0839385986328125	1.412445068359375	5.276092529296875	-7.439196570285613	0	7.4554443	-27.661133	-25.248718	183.4695	-14.539289	-12.171526
1448134987874	-1.3160247802734375	-0.2169189453125	6.492462158203125	-7.579602372561392	0	10.305786	-24.810791	-27.648926	191.09021	-9.419892	-12.278301
1448134987915	-0.9363555908203125	-0.820343017578125	10.267730712890625	-6.889232675768753	0	10.905457	-19.86084	-30.947876	199.361	-2.1364725	-9.994827
1448134987955	-1.2231903076171875	-2.287841796875	9.427459716796875	-7.37422921981358	0	13.604736	-14.610291	-32.148743	207.09236	4.39588	-8.264472
1448134987995	-8.325027465820313	-4.0921630859375	26.403076171875	-6.066829202194713	0	17.054749	-10.411072	-31.698608	214.82613	9.457384	-9.812352
1448134988035	-2.2288970947265625	-3.26617431640625	6.10565185546875	-9.025203529355336	0	17.805481	-6.8099976	-31.39801	221.49237	10.045876	-10.637916
1448134988076	-4.9687042236328125	-1.155975341796875	9.435791015625	-7.986954031632715	0	17.805481	-6.6604614	-31.549072	226.03535	10.115876	-9.606395
1448134988116	-1.5969085693359375	-2.15692138671875	10.79022216796875	-7.15398012298896	0	18.554688	-6.060791	-31.39801	228.55948	9.334016	-9.095393
1448134988156	-1.9563446044921875	-2.355682373046875	9.28106689453125	-7.577465657482216	0	19.755554	-7.260132	-30.348206	230.89734	8.707798	-9.711517
1448134988197	-2.4621734619140625	-1.265472412109375	7.880218505859375	-7.768813791430529	0	19.755554	-6.9610596	-30.047607	233.63794	6.917368	-10.631277
1448134988237	-3.2738800048828125	-0.260955810546875	10.43792724609375	-7.179226514812927	0	20.054626	-6.3598633	-29.898071	235.47412	5.6963797	-9.959419
1448134988277	-1.9968109130859375	-0.729888916015625	10.267730712890625	-7.0605062499999995	0	21.104431	-8.010864	-28.848267	236.69534	4.9511304	-11.3876
1448134988317	-1.2327117919921875	0.446014404296875	11.545989990234375	-6.526463935361969	0	20.655823	-8.309937	-28.848267	237.06897	2.0408027	-11.5097685
1448134988357	-4.3069610595703125	2.062286376953125	4.218017578125	-8.76703098576787	0	19.004822	-11.160278	-28.69873	237.77966	-2.8446093	-9.400896
1448134988398	-1.6100006103515625	2.339599609375	6.72930908203125	-7.0754998405304335	0	18.405151	-12.060547	-29.148865	239.28629	-7.884315	-6.176973
1448134988438	-0.8435211181640625	2.471710205078125	5.27252197265625	-6.8959718922807545	0	18.70575	-13.861084	-28.69873	240.2632	-9.632566	-5.707655
1448134988481	-2.0587005615234375	2.050384521484375	9.372711181640625	-6.746470077659845	0	22.60437	-11.460876	-25.848389	243.65143	-9.812705	-10.847614
1448134988522	-2.7680511474609375	0.29010009765625	10.49029541015625	-6.975991521182845	0	23.954773	-9.060669	-25.398254	246.72923	-9.175916	-14.777873
1448134988562	-2.4609832763671875	-0.556121826171875	10.029693603515625	-7.158470754480332	0	23.504639	-8.309937	-24.94812	250.1229	-9.71773	-15.736957
1448134988603	-1.5659637451171875	1.959930419921875	9.3929443359375	-6.678196092135449	0	24.855042	-7.56073	-24.34845	253.82068	-12.912391	-16.776922
1448134988643	-2.3264923095703125	1.3350830078125	10.053497314453125	-6.796269783446455	0	25.305176	-9.510803	-23.448181	254.74345	-14.991222	-17.614326
1448134988684	-1.3362579345703125	2.453857421875	9.160858154296875	-6.600596624829979	0	26.35498	-10.710144	-22.398376	253.52792	-17.379833	-18.337132
1448134988724	-2.8382720947265625	2.58953857421875	8.75262451171875	-6.890456829438763	0	26.054382	-11.160278	-20.59784	251.21452	-19.738905	-20.840649
1448134988765	-2.7240142822265625	3.37030029296875	9.367950439453125	-6.64207215999048	0	26.205444	-12.660217	-19.248962	249.95819	-20.947777	-21.841883
1448134988805	-3.1501007080078125	3.4488525390625	8.725250244140625	-6.802602317711394	0	26.805115	-14.610291	-16.697693	244.95128	-25.320103	-24.306376
1448134988845	-3.9748992919921875	3.926116943359375	8.915679931640625	-6.828866368022853	0	26.95465	-17.460632	-13.697815	240.02953	-28.912598	-26.399137
1448134988886	-3.6404571533203125	5.177001953125	8.625274658203125	-6.618839115302433	0	26.054382	-19.26117	-10.998535	233.88809	-33.18217	-28.18461
1448134988926	-4.3878936767578125	6.777801513671875	8.36224365234375	-6.527552655227769	0	26.054382	-23.010254	-6.9488525	225.37738	-38.336693	-30.763763
1448134988966	-2.4145660400390625	7.30267333984375	5.27252197265625	-6.619025801261884	0	25.15564	-23.910522	-3.1982422	217.46977	-42.565975	-33.798664
1448134989007	-6.7849273681640625	6.662353515625	5.98663330078125	-7.385017986472027	0	25.75531	-24.060059	-4.248047	215.88419	-41.71193	-34.49326
1448134989048	-5.1519927978515625	6.1339111328125	6.528167724609375	-7.066146377044429	0	26.35498	-22.261047	-6.4987183	218.72762	-37.46098	-33.73569
1448134989089	-6.3171844482421875	4.602142333984375	5.9176025390625	-7.756585262295735	0	26.655579	-20.46051	-9.648132	224.48253	-30.842941	-32.50897
1448134989129	-13.507095336914063	3.701171875	7.23870849609375	NaN	0	26.504517	-17.76123	-13.548279	229.64903	-24.044065	-29.643417
1448134989170	-3.6892547607421875	3.483367919921875	10.053497314453125	-6.668509740999661	0	26.35498	-17.76123	-13.247681	227.53033	-21.844528	-30.552483
1448134989210	-3.1120147705078125	0.9827880859375	7.71240234375	-7.443725551541155	0	26.054382	-18.060303	-12.948608	224.56526	-22.43932	-31.615902
1448134989250	-5.6268768310546875	1.486236572265625	5.06304931640625	-8.972169773012183	0	26.205444	-20.010376	-13.098145	224.11606	-22.824335	-31.546658
1448134989291	-6.7218475341796875	4.240325927734375	6.43890380859375	-7.817282980983564	0	26.504517	-18.510437	-13.247681	225.58775	-23.195702	-31.388615
1448134989331	-5.8887176513671875	3.488128662109375	8.34796142578125	-7.367876473947192	0	25.75531	-20.761108	-13.247681	227.29697	-24.516869	-29.233776
1448134989372	-4.2831573486328125	3.804718017578125	8.084930419921875	-7.048613218148573	0	26.504517	-20.159912	-13.247681	227.8451	-26.860563	-27.675867
1448134989412	-6.1255645751953125	5.51739501953125	8.68121337890625	-7.180359245055836	0	26.054382	-20.46051	-11.148071	227.07552	-28.639566	-28.794247
1448134989453	-5.1258087158203125	5.024658203125	8.3074951171875	-6.941928185552106	0	25.605774	-21.06018	-9.048462	223.56111	-31.328735	-31.252548
1448134989493	-5.9517974853515625	4.014190673828125	8.077789306640625	-7.328660837083124	0	25.004578	-22.711182	-7.849121	217.33975	-34.748245	-32.49159
1448134989534	-5.1031951904296875	4.302215576171875	6.83642578125	-7.426661287266584	0	25.15564	-25.260925	-7.247925	215.89693	-35.607727	-32.474052
1448134989574	-5.3638458251953125	5.042510986328125	5.683135986328125	-7.491043663509579	0	23.805237	-25.559998	-6.9488525	212.78683	-37.515755	-32.411034
1448134989614	-5.6935272216796875	5.104400634765625	5.42010498046875	-7.6086513214465885	0	24.105835	-25.860596	-5.747986	209.79175	-38.104317	-34.10764
1448134989655	-5.5887908935546875	5.20556640625	6.655517578125	-7.302145350616163	0	23.504639	-26.010132	-4.548645	205.62457	-38.413223	-35.22929
1448134989695	-5.7935028076171875	5.123443603515625	6.035430908203125	-7.490272798566324	0	23.355103	-27.059937	-3.9489746	203.28806	-39.456726	-37.514492
1448134989736	-5.4792938232421875	4.759246826171875	5.728363037109375	-7.568673271968212	0	22.755432	-28.260803	-3.1982422	198.60208	-39.946968	-38.55658
1448134989776	-6.2160186767578125	4.38909912109375	5.928314208984375	-7.781409971059428	0	22.60437	-26.760864	-4.248047	198.01355	-39.502117	-38.608307
1448134989817	-6.4314422607421875	4.735443115234375	5.74383544921875	-7.794676466733653	0	22.755432	-27.51007	-4.548645	198.28058	-38.11694	-38.228218
1448134989857	-5.6006927490234375	3.89398193359375	6.122314453125	-7.7052662241101935	0	22.60437	-27.661133	-5.2978516	198.05684	-36.673153	-37.798904
1448134989898	-6.0660552978515625	4.521209716796875	7.213714599609375	-7.42566131566672	0	22.755432	-27.810669	-5.5984497	196.84785	-36.201694	-38.156906
1448134989938	-6.7849273681640625	4.09869384765625	7.360107421875	-7.644685593422535	0	22.60437	-28.260803	-5.899048	196.00801	-35.037994	-38.742638
1448134989978	-5.7518463134765625	3.4202880859375	6.4508056640625	-7.77700707615457	0	22.0047	-28.710938	-7.247925	196.74512	-33.470825	-37.580044
1448134990019	-6.2898101806640625	3.9439697265625	5.6986083984375	-7.97554348958424	0	22.0047	-27.059937	-7.698059	198.31972	-32.152657	-37.023235
1448134990059	-6.8896636962890625	3.96539306640625	6.76739501953125	-7.846211163659505	0	22.155762	-27.059937	-7.849121	199.94528	-31.33472	-37.50079
1448134990099	-6.9444122314453125	3.68212890625	7.168487548828125	-7.830188043035356	0	22.60437	-25.410461	-7.849121	203.02095	-30.402946	-37.108738
1448134990140	-6.2541046142578125	3.41552734375	7.66717529296875	-7.609192886499878	0	23.805237	-24.661255	-9.34906	207.76442	-28.901134	-35.812233
1448134990180	-6.3743133544921875	3.476226806640625	7.446990966796875	-7.657108071250833	0	24.105835	-24.960327	-9.797668	210.60336	-28.147839	-35.142467
1448134990221	-5.7756500244140625	2.771636962890625	8.549102783203125	-7.4517985812642955	0	25.605774	-20.46051	-11.448669	220.99753	-26.03264	-32.21404
1448134990261	-4.7151947021484375	4.906829833984375	8.42413330078125	-6.871337076066746	0	26.655579	-18.060303	-13.398743	229.64104	-25.351261	-28.93643
1448134990302	-4.7116241455078125	4.223663330078125	8.465789794921875	-6.982094914238569	0	27.255249	-16.261292	-15.647888	238.19838	-23.925034	-25.854692
1448134990342	-3.0275115966796875	3.007293701171875	7.817138671875	-7.014303315124414	0	26.35498	-14.01062	-18.948364	244.87943	-21.503214	-22.813534
1448134990383	-2.6061859130859375	3.882080078125	8.64312744140625	-6.657152174357334	0	26.205444	-11.759949	-20.448303	250.73245	-18.694357	-21.310028
1448134990425	-4.7330474853515625	2.8680419921875	9.44293212890625	-7.053796586070449	0	27.105713	-8.460999	-19.848633	252.03944	-15.464148	-22.647154
1448134990465	-2.9549102783203125	2.112274169921875	8.956146240234375	-6.958177606492335	0	26.504517	-6.6604614	-21.798706	254.58292	-12.622286	-21.257885
1448134990505	-3.6868743896484375	1.805206298828125	9.15966796875	-7.108823160094651	0	24.855042	-4.110718	-24.649048	257.65295	-9.158794	-17.52602
1448134990546	-2.6216583251953125	1.72784423828125	8.618133544921875	-7.0273340073307455	0	23.954773	-4.710388	-25.398254	258.1468	-8.384815	-16.380863
1448134990586	-2.3253021240234375	0.964935302734375	9.508392333984375	-6.952125352591949	0	23.054504	-1.8600464	-27.798462	258.86005	-5.0665483	-12.672873
1448134990626	-1.9634857177734375	0.522186279296875	9.397705078125	-6.9858898696164395	0	22.0047	-2.0111084	-28.69873	259.22104	-3.258669	-10.263475
1448134990666	-1.6445159912109375	0.56146240234375	9.791656494140625	-6.855565790561987	0	20.655823	-2.760315	-29.447937	259.24304	-2.0707695	-7.2550807
1448134990706	-0.4971771240234375	0.831634521484375	9.1025390625	-6.734630524246548	0	19.755554	-1.260376	-30.648804	258.94095	-1.182804	-4.548598
1448134990747	-0.9423065185546875	0.09967041015625	10.29510498046875	-6.732113234364097	0	18.104553	-0.8102417	-32.447815	258.51572	-0.15344703	-2.6419992
1448134990787	-0.0270538330078125	0.67572021484375	9.632171630859375	-6.600225409797646	0	16.905212	-0.061035156	-31.848145	257.26913	-0.11736405	0.06716994
1448134990828	0.4394989013671875	0.515045166015625	10.534332275390625	-6.417075499015615	0	15.405273	-2.6107788	-33.64868	255.19873	-0.60783136	2.4051952
1448134990868	-0.8578033447265625	0.34246826171875	9.10491943359375	-6.875800731782209	0	14.355469	-5.0109863	-33.798218	252.54707	-1.7670664	4.3738194
1448134990909	0.1967010498046875	0.54718017578125	9.7547607421875	-6.566439206493999	0	12.85553	-6.9610596	-34.39789	248.81932	-2.2662606	5.7322474
1448134990949	0.5608978271484375	-0.008636474609375	9.705963134765625	-6.603753689715242	0	11.955261	-10.411072	-34.248352	243.9514	-3.0504713	6.4429293
1448134990989	0.6477813720703125	0.303192138671875	9.677398681640625	-6.546481567736715	0	11.654663	-10.110474	-33.348083	238.62354	-4.2837715	5.294819
1448134991029	-0.3138885498046875	0.886383056640625	10.66644287109375	-6.454147557693071	0	13.005066	-13.110352	-32.598877	233.96025	-3.8397963	2.5263317
1448134991071	-0.7471160888671875	0.548370361328125	8.9930419921875	-6.841082125387128	0	13.4552	-14.460754	-31.698608	229.42458	-2.6752105	0.07692492
1448134991112	-0.8530426025390625	0.44244384765625	10.465301513671875	-6.635684870453158	0	13.4552	-14.610291	-31.848145	225.51172	-1.4831619	-1.7983937
1448134991152	-0.4400482177734375	0.197265625	9.50006103515625	-6.764022401584009	0	12.85553	-15.361023	-32.148743	221.97472	-0.41765893	-2.6382012
1448134991192	-0.5209808349609375	0.115142822265625	8.4598388671875	-6.968642837798253	0	13.305664	-15.510559	-31.549072	219.14136	0.09778979	-3.700099
1448134991234	-1.3053131103515625	0.698333740234375	10.68548583984375	-6.631933644345194	0	12.4053955	-16.860962	-31.39801	215.93814	0.08812995	-5.2807364
1448134991275	-0.6376190185546875	0.854248046875	9.968994140625	-6.615107689348866	0	12.255859	-17.160034	-31.549072	214.25734	-0.3749439	-5.480561
1448134991315	-0.9256439208984375	0.700714111328125	10.2498779296875	-6.640380152908332	0	12.255859	-17.910767	-30.947876	212.28839	-1.2360703	-6.150568
1448134991355	-0.3055572509765625	0.2877197265625	8.8787841796875	-6.829865773490445	0	11.805725	-18.510437	-30.348206	210.39615	-2.2153711	-6.9257855
1448134991396	-1.5552520751953125	0.88519287109375	10.04754638671875	-6.744331693235031	0	11.955261	-18.811035	-30.047607	209.14908	-3.080738	-7.6808467
1448134991439	-1.1160736083984375	1.141082763671875	9.329864501953125	-6.748026205365225	0	11.355591	-21.360779	-29.447937	207.88069	-4.1802545	-8.474368
1448134991479	-1.7230682373046875	0.177032470703125	8.596710205078125	-7.151289389454302	0	11.955261	-21.96045	-28.997803	206.66354	-4.8327737	-9.185258
1448134991519	-2.3336334228515625	1.667144775390625	10.089202880859375	-6.736956008687907	0	11.955261	-21.360779	-29.598999	206.34727	-4.7688513	-9.378619
1448134991560	-0.6876068115234375	1.235107421875	9.12158203125	-6.697085143691774	0	12.104797	-21.510315	-29.148865	205.90034	-4.793403	-9.090654
1448134991600	-1.5588226318359375	0.7637939453125	9.725006103515625	-6.818293219063312	0	11.955261	-21.06018	-29.2984	205.59303	-4.631352	-8.872881
1448134991640	-1.5635833740234375	0.788787841796875	9.89520263671875	-6.7865988237598	0	11.505127	-20.610046	-29.447937	205.38922	-4.6298127	-8.594683
1448134991681	-0.8399505615234375	1.26129150390625	9.2310791015625	-6.699765591161107	0	11.654663	-22.711182	-29.148865	204.94522	-5.2260103	-8.402079
1448134991721	-1.5552520751953125	1.064910888671875	10.070159912109375	-6.711471775582481	0	11.355591	-21.510315	-28.997803	204.49203	-5.5091863	-8.334415
1448134991762	-1.5838165283203125	1.152984619140625	10.121337890625	-6.69364224547693	0	10.754395	-20.910645	-29.148865	204.0894	-5.7634087	-8.250242
1448134991802	-1.4659881591796875	1.2493896484375	9.626220703125	-6.739089251464176	0	10.905457	-22.261047	-28.997803	203.69711	-6.1711802	-8.154335
1448134991842	-1.3731536865234375	1.064910888671875	9.974945068359375	-6.69746792327701	0	10.604858	-22.410583	-28.547668	203.43549	-6.261452	-7.9305086
1448134991883	-1.2838897705078125	1.007781982421875	9.57861328125	-6.756599099481434	0	10.305786	-22.56012	-28.69873	203.33194	-6.429321	-7.736552
1448134991925	-1.1029815673828125	1.46600341796875	9.31201171875	-6.6961284008150885	0	10.604858	-22.261047	-28.69873	203.42902	-6.8267903	-7.556443
1448134991965	-0.9744415283203125	0.967315673828125	9.470306396484375	-6.7303717019063445	0	11.805725	-21.659851	-28.547668	203.51929	-7.1061735	-7.2134876
1448134992005	-1.2981719970703125	1.855194091796875	9.44293212890625	-6.64432957771907	0	12.4053955	-22.109985	-28.398132	204.11311	-7.638672	-7.0693645
1448134992045	-1.4886016845703125	1.901611328125	9.924957275390625	-6.59132910644448	0	11.955261	-22.860718	-29.148865	204.66785	-7.8623214	-6.7703977
1448134992086	-0.7137908935546875	0.98516845703125	10.0975341796875	-6.58652053775624	0	11.355591	-21.96045	-29.2984	204.98758	-7.6686544	-6.1572647
1448134992126	-1.3981475830078125	1.450531005859375	9.991607666015625	-6.637374370785951	0	11.204529	-23.161316	-28.248596	205.12561	-7.588762	-6.02324
1448134992166	-1.1434478759765625	1.119659423828125	9.884490966796875	-6.666424445250164	0	11.654663	-23.161316	-29.2984	204.91869	-7.286516	-6.021359
1448134992207	-0.9803924560546875	0.979217529296875	9.675018310546875	-6.696319725846388	0	11.654663	-22.860718	-29.2984	204.65071	-7.013482	-5.867232
1448134992247	-1.2731781005859375	1.3350830078125	9.713104248046875	-6.680098895686515	0	11.955261	-22.410583	-28.848267	204.41133	-7.125553	-6.1354814
1448134992288	-0.7709197998046875	1.28033447265625	9.803558349609375	-6.595218206680972	0	11.654663	-23.161316	-28.997803	204.40146	-7.095603	-5.960016
1448134992328	-0.6780853271484375	1.04229736328125	9.81903076171875	-6.615480635599544	0	11.654663	-22.410583	-28.848267	204.33475	-6.872913	-5.7516007
1448134992368	-0.8923187255859375	1.349365234375	9.686920166015625	-6.621640553664037	0	11.654663	-22.860718	-28.997803	204.49678	-6.8926744	-5.9330597
1448134992409	-1.1267852783203125	1.698089599609375	10.146331787109375	-6.532819905308477	0	12.4053955	-22.109985	-28.848267	204.8295	-6.7139516	-6.221525
1448134992449	-1.0113372802734375	1.64453125	9.84521484375	-6.569562957660731	0	12.554932	-21.659851	-29.447937	204.88664	-6.630973	-6.2819915
1448134992489	-1.4624176025390625	1.055389404296875	9.858306884765625	-6.732306798868487	0	11.955261	-22.410583	-29.748535	204.46329	-6.120053	-6.899014
1448134992530	-1.3529205322265625	1.343414306640625	9.903533935546875	-6.661122657852875	0	12.554932	-24.21112	-28.997803	204.24174	-6.2386036	-7.300458
1448134992570	-1.6635589599609375	1.367218017578125	10.391510009765625	-6.62931042122648	0	13.005066	-22.410583	-28.848267	204.1162	-6.4027843	-7.6901736
1448134992610	-1.1196441650390625	1.443389892578125	8.649078369140625	-6.811132741510986	0	12.85553	-23.010254	-28.848267	204.2423	-6.5580397	-8.274127
1448134992651	-1.1458282470703125	1.152984619140625	9.239410400390625	-6.765783206363635	0	13.305664	-22.410583	-28.69873	204.51752	-6.348459	-8.936398
1448134992692	-1.8147125244140625	0.61383056640625	9.21441650390625	-6.975781294060243	0	14.054871	-21.360779	-28.248596	205.0218	-5.3805265	-10.771245
1448134992732	-2.6930694580078125	0.6495361328125	8.203948974609375	-7.324581537253588	0	16.004944	-20.761108	-27.947998	205.70428	-4.377702	-12.788858
1448134992772	-2.4883575439453125	1.0113525390625	10.4879150390625	-6.8047822116957715	0	16.305542	-20.761108	-27.947998	206.31477	-3.6396086	-13.758347
1448134992813	-2.5323944091796875	0.5257568359375	10.517669677734375	-6.889232675768753	0	16.604614	-20.010376	-27.648926	206.50717	-3.6724122	-13.841939
1448134992853	-2.4931182861328125	0.900665283203125	10.89019775390625	-6.7573796486681115	0	16.455078	-21.211243	-27.497864	206.49878	-3.6095583	-14.163931
1448134992893	-2.7275848388671875	0.698333740234375	10.717620849609375	-6.858995930424752	0	15.705872	-21.211243	-28.09906	206.41133	-3.702329	-13.32866
1448134992934	-1.7075958251953125	0.530517578125	10.38079833984375	-6.772836645225366	0	14.054871	-21.360779	-28.848267	206.02219	-3.8480852	-11.748648
1448134992974	-2.3479156494140625	0.629302978515625	10.34271240234375	-6.86991824477944	0	13.604736	-20.46051	-28.997803	205.40225	-3.9138324	-11.165952
1448134993015	-2.3836212158203125	0.96612548828125	9.854736328125	-6.901907141781434	0	13.755798	-20.310974	-28.69873	204.1629	-4.3415585	-10.64501
1448134993056	-1.1934356689453125	0.812591552734375	9.41912841796875	-6.800226054237794	0	13.154602	-20.910645	-29.148865	203.67706	-4.471688	-10.363737
1448134993096	-2.1051177978515625	0.712615966796875	9.551239013671875	-6.950249674389154	0	12.554932	-22.109985	-29.148865	202.2073	-4.6770997	-10.020763
1448134993136	-2.4228973388671875	0.755462646484375	9.889251708984375	-6.939228901484573	0	13.154602	-21.360779	-28.547668	201.56136	-5.0823817	-10.123551
1448134993177	-1.5504913330078125	1.231536865234375	8.725250244140625	-6.907238729587638	0	12.4053955	-21.96045	-28.398132	201.0185	-5.698138	-10.079778
1448134993217	-1.3088836669921875	1.131561279296875	9.267974853515625	-6.79152911097926	0	12.4053955	-21.96045	-28.547668	200.81741	-5.9077706	-9.927732
1448134993257	-1.7302093505859375	1.000640869140625	9.406036376953125	-6.861015525654066	0	11.955261	-22.860718	-28.69873	200.70844	-6.029641	-9.593191
1448134993298	-1.5897674560546875	1.3922119140625	10.022552490234375	-6.672114883072151	0	12.104797	-21.96045	-28.248596	200.99611	-6.3268003	-9.553662
1448134993338	-1.6945037841796875	1.586212158203125	9.929718017578125	-6.672684495140055	0	12.554932	-22.109985	-28.547668	201.27504	-6.4885945	-9.491069
1448134993379	-1.5504913330078125	0.682861328125	9.61431884765625	-6.849119849132807	0	11.505127	-22.109985	-28.69873	201.32649	-6.3395557	-9.385593
1448134993419	-1.5719146728515625	1.04229736328125	9.188232421875	-6.864047517493581	0	12.554932	-23.460388	-28.848267	201.41609	-6.071687	-9.219615
1448134993460	-1.3612518310546875	1.16131591796875	8.9549560546875	-6.847711671319519	0	12.85553	-22.261047	-28.547668	201.45648	-6.162291	-9.540328
1448134993500	-0.3805389404296875	0.919708251953125	7.746917724609375	-6.928043584688183	0	13.154602	-21.810913	-28.09906	201.17229	-6.1979046	-10.841578
1448134993541	-0.3912506103515625	0.933990478515625	5.973541259765625	-7.253899248260836	0	14.654541	-23.609924	-26.44806	200.59183	-7.020692	-14.53238
1448134993581	-2.4074249267578125	1.557647705078125	5.7890625	-7.584149712969868	0	17.355347	-23.010254	-23.74878	199.85411	-8.472306	-20.043335
1448134993622	-0.5412139892578125	2.138458251953125	6.968536376953125	-6.879864508082694	0	18.554688	-25.260925	-21.647644	197.78912	-11.643256	-23.617153
1448134993662	0.6501617431640625	3.954681396484375	6.892364501953125	-6.415846744217214	0	18.405151	-27.360535	-18.948364	194.49773	-16.226969	-26.228266
1448134993704	-6.9241790771484375	4.891357421875	8.607421875	-7.242501675105542	0	19.004822	-28.710938	-16.697693	190.39885	-19.070309	-30.361067
1448134993744	-8.035812377929688	4.54620361328125	10.534332275390625	-7.152410196925964	0	17.355347	-30.06134	-15.348816	183.4184	-22.22905	-33.298233
1448134993784	-5.9149017333984375	3.904693603515625	10.086822509765625	-7.076807522947314	0	13.154602	-32.460022	-14.299011	176.95569	-28.03891	-29.13293
1448134993825	-7.2752838134765625	6.208892822265625	8.6788330078125	-7.04753457551265	0	10.154724	-35.760498	-13.548279	173.56934	-32.671814	-24.219357
1448134993865	-7.3121795654296875	4.844940185546875	9.835693359375	-7.092110364821374	0	8.355713	-35.4599	-13.548279	170.03998	-34.251724	-23.153225
1448134993905	-6.7635040283203125	5.149627685546875	8.71453857421875	-7.14189321848626	0	8.955383	-35.760498	-13.697815	167.15643	-33.83997	-24.353811
1448134993946	-6.1529388427734375	4.837799072265625	9.8214111328125	-6.890048721125464	0	8.505249	-35.01129	-13.848877	166.53839	-33.84693	-24.607191
1448134993986	-4.1331939697265625	4.771148681640625	9.140625	-6.6795279330475825	0	9.104919	-35.760498	-13.848877	165.30127	-33.800438	-25.515446
1448134994026	-2.8894500732421875	4.802093505859375	1.07354736328125	-8.078540164259802	0	10.305786	-35.310364	-12.197876	161.8565	-36.920734	-30.194141
1448134994067	-10.839889526367188	6.10296630859375	12.129180908203125	-7.087729335472227	0	9.555054	-35.760498	-11.148071	158.73206	-38.293118	-33.430065
1448134994107	-6.2814788818359375	5.444793701171875	7.406524658203125	-7.243430189484305	0	10.905457	-35.610962	-10.098267	155.51709	-41.628654	-35.432335
1448134994147	-3.1631927490234375	5.168670654296875	1.105682373046875	-7.892286400399039	0	10.455322	-36.51123	-7.698059	154.49646	-43.8612	-35.729546
1448134994188	-4.8163604736328125	5.620941162109375	7.09588623046875	-6.995823075563393	0	10.005188	-37.1109	-7.0983887	152.69153	-46.551376	-36.117428
1448134994229	-5.2055511474609375	4.700927734375	6.91259765625	-7.275202314300643	0	9.104919	-37.71057	-6.7977905	152.13733	-47.08964	-35.320053
1448134994269	-5.3816986083984375	6.395751953125	5.37725830078125	-7.278495641887421	0	8.204651	-37.860107	-6.19812	151.93289	-49.592754	-32.760677
1448134994310	-8.752304077148438	7.0146484375	5.855712890625	-7.777300305283479	0	7.00531	-38.61084	-4.399109	151.84692	-52.03698	-30.724361
1448134994351	-6.1350860595703125	6.356475830078125	4.81787109375	-7.561770192585234	0	4.7546387	-39.51111	-3.048706	150.5863	-55.38925	-28.422823
1448134994391	-4.0903472900390625	6.78375244140625	3.988311767578125	-7.221698276733656	0	3.2546997	-40.859985	-0.79803467	148.53696	-58.949757	-25.920397
1448134994432	-1.7801971435546875	6.79803466796875	5.23681640625	-6.604311141907392	0	0.4043579	-39.51111	1.0009766	146.4721	-62.032047	-22.732195
1448134994472	1.7951202392578125	4.61285400390625	-2.774322509765625	-7.900386021088283	0	-1.095581	-39.81018	3.7017822	146.64111	-65.52584	-20.967016
1448134994512	-4.9936981201171875	9.519989013671875	2.8564453125	-7.089480899545497	0	-3.0456543	-39.51111	4.901123	148.1116	-67.52955	-17.009169
1448134994552	-5.0103607177734375	12.41094970703125	5.123748779296875	-6.267625887555168	0	-2.7450562	-39.060974	5.201721	147.84613	-68.566345	-16.40461
1448134994593	-3.2453155517578125	8.670196533203125	1.828125	-7.113459457539337	0	-3.0456543	-40.40985	5.9509277	147.03174	-69.76011	-16.162525
1448134994633	-0.2960357666015625	9.343841552734375	3.4658203125	-6.2691395975880075	0	-2.59552	-39.81018	5.8013916	147.10019	-69.75108	-15.865457
1448134994674	-2.8323211669921875	8.83087158203125	1.469879150390625	-7.00536659856128	0	-3.0456543	-39.961243	5.6518555	147.04694	-69.7242	-15.566302
1448134994714	-3.8296966552734375	8.505950927734375	6.6317138671875	-6.443867756771521	0	-3.3447266	-39.360046	5.052185	147.03857	-68.87205	-15.37092
1448134994762	-3.4131317138671875	8.177459716796875	2.73504638671875	-7.068101435156768	0	-3.4942627	-38.909912	5.3512573	146.51889	-68.9321	-15.291192
1448134994803	-2.2788848876953125	8.951080322265625	3.4324951171875	-6.627812408518333	0	-3.944397	-38.909912	5.052185	145.71396	-68.79399	-14.977561
1448134994843	-1.2612762451171875	9.089141845703125	4.226348876953125	-6.33468201745216	0	-3.944397	-38.909912	5.052185	145.5628	-68.767876	-14.885508
1448134994884	-1.4195709228515625	9.134368896484375	4.143035888671875	-6.363079437798477	0	-4.095459	-39.51111	4.901123	145.29224	-68.9067	-14.871671
1448134994925	-6.0862884521484375	6.8004150390625	3.100433349609375	-7.853510156566411	0	-4.5455933	-39.21051	5.5023193	145.08313	-69.17634	-15.066307
1448134994966	-2.3705291748046875	9.07843017578125	1.13067626953125	-7.006854070364989	0	-6.6452026	-38.61084	4.450989	143.68344	-68.83606	-13.975064
1448134995006	-1.6647491455078125	6.4576416015625	14.664276123046875	-5.3955719362600325	0	-7.095337	-39.21051	4.602051	142.74435	-67.777275	-11.964798
1448134995047	0.4299774169921875	3.159637451171875	-6.851898193359375	NaN	0	-7.545471	-38.461304	7.6019287	139.64099	-72.40379	-12.614458
1448134995087	-4.5842742919921875	12.909637451171875	4.700042724609375	-6.197527282003165	0	-6.6452026	-38.31024	6.251526	138.1546	-72.99523	-14.945809
1448134995127	-4.8937225341796875	13.016754150390625	0.570098876953125	-6.85818847967858	0	-7.8445435	-37.71057	7.4523926	136.80392	-74.51561	-14.14625
1448134995169	0.8584442138671875	7.709716796875	1.874542236328125	-6.824073883411444	0	-10.394287	-37.860107	8.351135	135.31964	-76.10603	-11.456942
1448134995209	-0.1365509033203125	8.863006591796875	3.224212646484375	-6.349626130419708	0	-11.14502	-37.860107	8.052063	134.6308	-76.52914	-9.300924
1448134995250	-1.0744171142578125	9.574737548828125	2.30419921875	-6.519577083541961	0	-12.794495	-36.961365	8.502197	133.93832	-77.10808	-7.5599856
1448134995292	-0.3948211669921875	10.41619873046875	2.07330322265625	-6.328859241097344	0	-13.394165	-35.610962	8.351135	133.05505	-77.80313	-5.3352485
1448134995332	0.0514984130859375	11.543304443359375	3.221832275390625	-5.957361746548294	0	-15.344238	-35.160828	9.251404	130.6399	-79.50892	-1.9592358
1448134995372	0.2086029052734375	10.438812255859375	1.8900146484375	-6.26577667631237	0	-17.744446	-33.36029	9.40094	128.57281	-80.54044	-0.48331508
1448134995413	-0.3507843017578125	9.77825927734375	1.688873291015625	-6.472481185890106	0	-17.445374	-33.66089	9.101868	128.04233	-80.776634	-0.4750571
1448134995453	-0.1686859130859375	9.16888427734375	2.04473876953125	-6.483207586548187	0	-18.045044	-33.36029	9.251404	127.64899	-80.85729	-0.49503607
1448134995493	0.2169342041015625	9.3902587890625	0.86883544921875	-6.569930656001016	0	-17.895508	-34.111023	9.101868	125.76437	-81.417534	-0.6545923
1448134995534	0.5025787353515625	9.162933349609375	1.058074951171875	-6.531911154302929	0	-18.644714	-33.36029	8.952332	122.95285	-82.377815	-0.74592894
1448134995574	0.4109344482421875	11.518310546875	1.726959228515625	-6.11116981886644	0	-19.244385	-33.511353	8.651733	121.63025	-82.70421	-0.7946804
1448134995615	0.3466644287109375	9.68304443359375	1.4520263671875	-6.41812907206035	0	-19.094849	-33.66089	8.502197	120.25247	-82.93411	-1.1439619
1448134995655	0.3121490478515625	9.43548583984375	1.641265869140625	-6.431855453099311	0	-19.244385	-33.511353	9.101868	120.86038	-83.019806	-1.1371031
1448134995695	0.1955108642578125	9.441436767578125	1.274688720703125	-6.5033233914582524	0	-18.495178	-32.76062	9.552002	121.63904	-83.21084	-1.0660013
1448134995736	0.1526641845703125	9.877044677734375	1.648406982421875	-6.38927416760904	0	-18.644714	-34.710693	9.40094	122.576385	-83.413795	-0.94202125
1448134995776	-0.2079620361328125	9.7139892578125	1.7900390625	-6.445637893075899	0	-18.495178	-33.66089	10.3012085	123.66937	-83.719345	-0.7632484
1448134995816	-0.0603790283203125	9.3759765625	1.255645751953125	-6.555255157302933	0	-18.045044	-33.06122	11.351013	124.72247	-84.16381	-0.49853674
1448134995857	0.1931304931640625	9.7996826171875	1.069976806640625	-6.480522743381899	0	-18.19458	-33.66089	11.351013	125.77008	-84.6039	-0.20879592
1448134995897	0.0455474853515625	9.81634521484375	1.050933837890625	-6.503143244102333	0	-18.345642	-32.460022	12.251282	126.99765	-84.99444	0.14857727
1448134995937	0.0122222900390625	9.6092529296875	1.36871337890625	-6.4914546640256	0	-18.045044	-33.36029	12.402344	128.43933	-85.47234	0.60993886
1448134995978	0.5263824462890625	10.0091552734375	1.162811279296875	-6.386315070491431	0	-18.495178	-32.76062	13.301086	129.81128	-86.067215	1.0232662
1448134996018	0.7906036376953125	9.76873779296875	0.561767578125	-6.471767319221388	0	-17.895508	-31.860352	14.051819	131.30432	-86.520096	1.1613894
1448134996058	0.4573516845703125	9.4949951171875	0.862884521484375	-6.517948099411829	0	-17.59491	-31.111145	14.501953	133.13531	-86.824425	1.6524414
1448134996099	0.3359527587890625	9.784210205078125	1.30206298828125	-6.42692162001346	0	-17.59491	-32.910156	15.25116	135.23642	-87.05665	2.1849418
1448134996139	-0.0139617919921875	9.793731689453125	0.239227294921875	-6.641320045180393	0	-17.59491	-30.66101	15.551758	136.86035	-87.39225	2.5980802
1448134996180	-0.1972503662109375	9.731842041015625	0.39276123046875	-6.655829791737671	0	-16.99524	-30.960083	16.001892	138.18091	-87.78472	2.789251
1448134996220	0.0217437744140625	9.684234619140625	0.239227294921875	-6.652997981913925	0	-16.99524	-31.56128	16.751099	139.57733	-88.13615	2.85792
1448134996260	0.0967254638671875	9.6663818359375	-0.01904296875	-6.685051613212653	0	-15.945435	-30.66101	17.201233	140.91241	-88.45786	2.9240353
1448134996300	-0.0246734619140625	9.772308349609375	0.086883544921875	-6.6705964233730235	0	-16.244507	-31.111145	18.251038	142.13477	-88.83763	2.9656398
1448134996341	0.0836334228515625	9.6044921875	-0.139251708984375	-6.71647477577895	0	-15.4953	-30.960083	18.251038	143.10553	-89.1856	3.0151632
1448134996381	0.2621612548828125	9.365264892578125	-0.163055419921875	-6.730178259155766	0	-15.945435	-31.410217	18.551636	143.7779	-89.51577	3.125983
1448134996421	0.6001739501953125	9.43310546875	-0.14996337890625	-6.66282582871494	0	-15.644836	-30.810547	19.302368	144.17639	-89.822975	3.1638126
1448134996462	1.0274505615234375	9.760406494140625	-0.315399169921875	-6.570482281847246	0	-15.644836	-30.810547	19.00177	144.59033	-90.18247	3.1498404
1448134996502	1.0250701904296875	9.700897216796875	-0.3427734375	-6.584303618577806	0	-15.4953	-30.960083	18.852234	144.94263	-90.42822	3.1867278
1448134996543	0.8893890380859375	9.712799072265625	-0.29278564453125	-6.595774176972485	0	-15.4953	-30.960083	19.451904	145.15912	-90.5768	3.205454
1448134996583	0.7822723388671875	9.594970703125	-0.348724365234375	-6.639816351444606	0	-15.4953	-31.111145	19.60144	145.7395	-91.06201	3.2940629
1448134996624	0.7679901123046875	9.517608642578125	-0.505828857421875	-6.679337635333271	0	-15.194702	-29.910278	20.051575	146.02603	-91.34748	3.4015384
1448134996665	0.7787017822265625	9.712799072265625	-0.4427490234375	-6.636623370582255	0	-15.4953	-30.360413	20.051575	146.28949	-91.56557	3.4605596
1448134996706	0.8655853271484375	9.69970703125	-0.42608642578125	-6.622388020150481	0	-15.344238	-30.210876	20.20111	146.62836	-91.75863	3.5380332
1448134996748	0.9167633056640625	9.59259033203125	-0.5379638671875	-6.64884925453135	0	-14.89563	-30.810547	20.651245	146.93903	-92.016464	3.6348329
1448134996788	0.7548980712890625	9.4283447265625	-0.52130126953125	-6.698233623859582	0	-14.445496	-30.360413	20.352173	147.25916	-92.25462	3.6971552
1448134996829	0.5811309814453125	9.539031982421875	-0.489166259765625	-6.703215282614551	0	-15.194702	-28.860474	20.651245	147.39294	-92.38235	3.6723282
1448134996869	0.8108367919921875	9.760406494140625	-0.50225830078125	-6.633433602637333	0	-15.045166	-29.910278	20.501709	147.35736	-92.48907	3.7395802
1448134996909	0.9167633056640625	9.627105712890625	-0.55938720703125	-6.646776933509814	0	-15.194702	-29.161072	20.352173	147.42047	-92.59531	3.8605473
1448134996950	0.6334991455078125	9.73779296875	-0.477264404296875	-6.660744300662428	0	-15.045166	-29.310608	20.951843	147.47772	-92.6437	3.8709106
1448134996990	0.7644195556640625	9.565216064453125	-0.636749267578125	-6.693259936251893	0	-14.89563	-28.860474	20.802307	147.36316	-92.73098	3.9003208
1448134997031	0.7775115966796875	9.5426025390625	-0.648651123046875	-6.6967024112206985	0	-14.89563	-29.310608	20.802307	147.246	-92.845894	3.9834797
1448134997071	0.6537322998046875	9.56878662109375	-0.617706298828125	-6.70743678679707	0	-15.344238	-29.310608	20.352173	147.07455	-92.92136	4.002658
1448134997112	0.6596832275390625	9.6949462890625	-0.586761474609375	-6.681241133886831	0	-15.344238	-28.860474	20.802307	146.83789	-92.97913	4.019301
1448134997153	0.7001495361328125	9.662811279296875	-0.493927001953125	-6.665098159561805	0	-14.595032	-29.460144	20.501709	146.57343	-93.032104	4.034322
1448134997193	0.7834625244140625	9.493804931640625	-0.46893310546875	-6.6747739590797925	0	-15.194702	-30.210876	20.20111	146.27759	-93.06889	4.048715
1448134997234	0.8084564208984375	9.519989013671875	-0.453460693359375	-6.664151155354961	0	-15.644836	-29.611206	20.20111	145.86588	-93.07237	4.108473
1448134997274	0.8215484619140625	9.700897216796875	-0.451080322265625	-6.633058546600452	0	-15.4953	-29.760742	20.501709	145.66052	-93.06758	4.149976
1448134997314	0.7667999267578125	9.693756103515625	-0.51654052734375	-6.653186690119785	0	-15.945435	-29.760742	20.501709	145.07037	-93.024086	4.318413
1448134997354	0.7667999267578125	9.5235595703125	-0.485595703125	-6.675344054864675	0	-16.244507	-29.01001	20.20111	144.67102	-92.980995	4.3804536
1448134997395	0.8144073486328125	9.614013671875	-0.462982177734375	-6.649791668350224	0	-16.545105	-30.360413	20.20111	144.22287	-92.931595	4.436675
1448134997435	0.8715362548828125	9.769927978515625	-0.410614013671875	-6.608029972671137	0	-16.09497	-28.710938	20.20111	143.71399	-92.87618	4.5002584
1448134997476	0.9572296142578125	9.49261474609375	-0.485595703125	-6.649980184877094	0	-16.244507	-28.260803	20.051575	143.21771	-92.882675	4.5841656
1448134997517	1.0119781494140625	9.596160888671875	-0.4998779296875	-6.627250835721493	0	-16.545105	-28.860474	20.20111	142.74103	-92.8804	4.6779213
1448134997557	1.0964813232421875	9.660430908203125	-0.420135498046875	-6.591514195017738	0	-16.545105	-29.910278	20.051575	142.51532	-92.86179	4.750323
1448134997598	1.2178802490234375	9.629486083984375	-0.465362548828125	-6.5844883035841715	0	-17.294312	-28.111267	19.60144	141.9466	-92.75467	5.014482
1448134997638	1.3309478759765625	9.75921630859375	-0.432037353515625	-6.541921328054675	0	-16.694641	-29.460144	19.60144	141.7976	-92.70058	5.198012
1448134997679	1.1643218994140625	9.51641845703125	-0.39990234375	-6.600225409797646	0	-17.294312	-29.460144	19.151306	141.85175	-92.67548	5.262518
1448134997719	1.2416839599609375	9.762786865234375	-0.446319580078125	-6.55726910809053	0	-16.545105	-30.06134	19.151306	141.95746	-92.64208	5.306538
1448134997759	1.0691070556640625	9.791351318359375	-0.52606201171875	-6.591884404133907	0	-16.694641	-29.611206	19.750977	142.10773	-92.60834	5.2822347
1448134997800	0.3371429443359375	9.47833251953125	0.067840576171875	-6.66282582871494	0	-16.545105	-30.360413	19.451904	142.13538	-92.439804	5.0199814
1448134997840	0.5835113525390625	9.555694580078125	0.10711669921875	-6.605612241223666	0	-16.244507	-29.460144	19.451904	142.05182	-92.21347	4.8227606
1448134997881	0.9762725830078125	9.524749755859375	0.182098388671875	-6.5380956436408	0	-17.59491	-29.161072	19.00177	141.85352	-91.910255	4.8712726
1448134997921	1.0726776123046875	9.460479736328125	-0.022613525390625	-6.564603111777837	0	-17.445374	-30.66101	19.151306	141.5993	-91.63977	4.9362707
1448134997961	1.0833892822265625	9.74017333984375	-0.19281005859375	-6.546116513846978	0	-17.445374	-29.460144	19.302368	141.36108	-91.40299	4.992473
1448134998002	1.0238800048828125	9.76873779296875	-0.386810302734375	-6.580796612451839	0	-17.744446	-30.360413	19.151306	141.10114	-91.30052	5.0542417
1448134998042	0.8096466064453125	9.842529296875	-0.380859375	-6.601710527908908	0	-17.744446	-29.611206	19.151306	140.73767	-91.30861	5.0836415
1448134998082	0.5561370849609375	9.58544921875	-0.332061767578125	-6.674583950211491	0	-17.895508	-29.310608	19.00177	140.1821	-91.374985	5.054339
1448134998123	0.6715850830078125	9.65924072265625	-0.424896240234375	-6.659231326738208	0	-18.644714	-29.760742	18.551636	139.45041	-91.47151	5.0275154
1448134998163	0.4966278076171875	9.891326904296875	-0.3570556640625	-6.639440539560478	0	-18.19458	-30.210876	18.852234	138.57281	-91.558655	5.00317
1448134998203	0.5537567138671875	9.519989013671875	-0.489166259765625	-6.7107028008389165	0	-19.395447	-29.910278	18.852234	137.55768	-91.60614	4.9890137
1448134998245	0.6584930419921875	9.550933837890625	-0.6236572265625	-6.710510586995214	0	-19.094849	-29.310608	18.251038	136.43872	-91.78892	5.0594587
1448134998285	0.8405914306640625	9.827056884765625	-0.317779541015625	-6.589478806383871	0	-19.244385	-29.161072	18.101501	134.78378	-91.83303	5.2557993
1448134998325	1.2012176513671875	9.62115478515625	-0.370147705078125	-6.573609939476257	0	-19.694519	-30.210876	17.800903	133.88416	-91.907585	5.428661
1448134998366	1.4832916259765625	9.77349853515625	-0.17138671875	-6.477125050044254	0	-20.594788	-29.910278	17.501831	133.32635	-91.8882	5.6129003
1448134998406	1.6011199951171875	9.6092529296875	-0.0618896484375	-6.467665547758209	0	-19.694519	-29.01001	17.051697	133.23926	-91.883804	5.826263
1448134998447	1.2928619384765625	9.534271240234375	-0.013092041015625	-6.518129057799763	0	-20.895386	-27.360535	17.651367	133.35187	-91.87914	5.893415
1448134998487	1.0441131591796875	9.600921630859375	-0.203521728515625	-6.575266983809399	0	-20.895386	-28.710938	17.800903	133.72025	-91.91087	5.999372
1448134998527	0.9762725830078125	9.6949462890625	-0.322540283203125	-6.5896637884988785	0	-21.044922	-28.41034	17.800903	133.91882	-91.92715	6.0565767
1448134998568	0.8584442138671875	9.608062744140625	-0.296356201171875	-6.617532619583597	0	-20.445251	-29.01001	17.651367	134.10162	-91.92585	6.0553126
1448134998608	1.0429229736328125	9.5711669921875	-0.4617919921875	-6.620332909244296	0	-20.895386	-29.760742	18.101501	134.3081	-92.00847	6.073763
1448134998648	1.0060272216796875	9.6949462890625	-0.59747314453125	-6.627999621498333	0	-19.995117	-27.960205	18.551636	134.54865	-92.1402	6.085404
1448134998689	0.7584686279296875	9.75921630859375	-0.584381103515625	-6.654885572421287	0	-20.594788	-29.310608	17.951965	134.76715	-92.27767	6.0021887
1448134998729	0.8596343994140625	9.612823486328125	-0.591522216796875	-6.66320443645008	0	-20.144653	-28.41034	18.551636	135.00922	-92.42619	5.8963056
1448134998770	1.0060272216796875	9.567596435546875	-0.54034423828125	-6.639064772264511	0	-19.845581	-28.260803	18.551636	135.33124	-92.5578	5.8750844
1448134998810	1.0964813232421875	9.641387939453125	-0.558197021484375	-6.6160401367140995	0	-19.845581	-29.161072	18.701172	135.63733	-92.679985	5.869163
1448134998850	1.1393280029296875	9.669952392578125	-0.5379638671875	-6.601710527908908	0	-19.845581	-29.161072	18.852234	136.00327	-92.777084	5.8494077
1448134998891	1.0072174072265625	9.50689697265625	-0.51177978515625	-6.643953229535969	0	-19.694519	-29.910278	18.701172	136.41064	-92.87016	5.8257594
1448134998931	1.2345428466796875	9.58306884765625	-0.543914794921875	-6.601339183870669	0	-19.845581	-28.41034	18.852234	136.86981	-92.90996	5.8486304
1448134998971	1.1393280029296875	9.586639404296875	-0.5474853515625	-6.616226658890207	0	-19.544983	-29.760742	18.551636	137.27484	-93.097664	5.8694396
1448134999012	1.1702728271484375	9.6473388671875	-0.548675537109375	-6.602081914979014	0	-19.544983	-28.260803	18.852234	137.74924	-93.20869	5.8415356
1448134999052	1.2059783935546875	9.565216064453125	-0.58795166015625	-6.615480635599544	0	-19.094849	-28.860474	19.00177	138.28888	-93.28868	5.814438
1448134999092	1.2202606201171875	9.617584228515625	-0.4951171875	-6.590588858674023	0	-18.495178	-28.860474	19.302368	138.82379	-93.36539	5.8087974
1448134999133	1.1488494873046875	9.636627197265625	-0.498687744140625	-6.599297560187114	0	-18.495178	-28.41034	19.151306	139.42654	-93.41464	5.798978
1448134999173	1.1048126220703125	9.58544921875	-0.593902587890625	-6.629123131015792	0	-18.345642	-29.310608	19.60144	140.05475	-93.485085	5.781959
1448134999213	0.9453277587890625	9.672332763671875	-0.542724609375	-6.632496045639661	0	-18.644714	-29.161072	19.750977	140.61066	-93.5451	5.755586
1448134999254	0.9167633056640625	9.66162109375	-0.5474853515625	-6.639440539560478	0	-18.495178	-29.910278	19.902039	141.1175	-93.57853	5.687207
1448134999294	0.8167877197265625	9.612823486328125	-0.637939453125	-6.677435294694495	0	-17.895508	-28.111267	19.902039	141.70178	-93.643196	5.5828466
1448134999335	0.8989105224609375	9.619964599609375	-0.679595947265625	-6.669837469172285	0	-18.045044	-27.51007	20.051575	142.0075	-93.751945	5.4187193
1448134999375	0.9120025634765625	9.6092529296875	-0.701019287109375	-6.672874388837675	0	-18.495178	-28.260803	19.902039	142.16107	-93.77891	5.3784976
1448134999416	0.9262847900390625	9.641387939453125	-0.655792236328125	-6.658286087258123	0	-17.895508	-28.41034	20.20111	142.54126	-93.847305	5.2627463
1448134999457	0.9465179443359375	9.61163330078125	-0.810516357421875	-6.684479744837603	0	-17.445374	-28.41034	20.20111	142.74179	-93.92191	5.203738
1448134999497	0.9477081298828125	9.6092529296875	-0.698638916015625	-6.666803486919146	0	-17.144775	-28.710938	20.651245	142.93945	-93.94748	5.166465
1448134999537	0.9691314697265625	9.61163330078125	-0.55224609375	-6.639816351444606	0	-17.445374	-28.260803	20.501709	143.12524	-93.93079	5.128807
1448134999578	1.0905303955078125	9.62353515625	-0.57366943359375	-6.622201137080333	0	-17.294312	-27.661133	20.352173	143.19675	-93.92714	5.1192102
1448134999618	0.9834136962890625	9.560455322265625	-0.52606201171875	-6.6415080571275755	0	-17.59491	-29.161072	20.352173	143.48618	-93.85352	5.141295
1448134999658	0.9774627685546875	9.58782958984375	-0.44512939453125	-6.625379642359368	0	-16.844177	-28.41034	20.20111	143.63177	-93.76466	5.1180654
1448134999700	1.0179290771484375	9.65924072265625	-0.536773681640625	-6.622201137080333	0	-16.844177	-27.960205	20.051575	143.76279	-93.674385	5.1288433
1448134999740	0.9369964599609375	9.6044921875	-0.441558837890625	-6.628561326608766	0	-17.294312	-29.01001	20.352173	143.88281	-93.54532	5.113523
1448134999781	0.9215240478515625	9.646148681640625	-0.539154052734375	-6.639816351444606	0	-16.844177	-28.41034	20.501709	143.95285	-93.45702	5.1259985
1448134999821	0.8762969970703125	9.65924072265625	-0.542724609375	-6.645458891104106	0	-17.294312	-28.860474	20.501709	144.00153	-93.38343	5.1103024
1448134999862	0.8120269775390625	9.655670166015625	-0.599853515625	-6.665287594662114	0	-18.495178	-28.860474	20.651245	143.93689	-93.34867	5.0525117
1448134999902	0.7953643798828125	9.59259033203125	-0.596282958984375	-6.677435294694495	0	-18.945313	-28.710938	20.352173	143.80481	-93.327644	4.974932
1448134999942	0.8263092041015625	9.641387939453125	-0.59033203125	-6.663772433571213	0	-18.19458	-29.310608	20.20111	143.61981	-93.28	4.8939786
1448134999983	0.7537078857421875	9.69732666015625	-0.462982177734375	-6.64621199088402	0	-18.495178	-29.310608	20.051575	143.45032	-93.19106	4.8267636
1448135000024	0.7965545654296875	9.64495849609375	-0.4998779296875	-6.64019220793277	0	-18.345642	-29.01001	20.352173	143.24017	-93.070244	4.787644
1448135000065	0.8846282958984375	9.68304443359375	-0.54034423828125	-6.640004274112191	0	-18.19458	-28.111267	20.051575	143.02615	-92.9531	4.7813697
1448135000105	0.7632293701171875	9.66876220703125	-0.504638671875	-6.655829791737671	0	-18.644714	-28.41034	20.051575	142.956	-92.93266	4.768801
1448135000145	0.7287139892578125	9.634246826171875	-0.46893310546875	-6.661122657852875	0	-17.59491	-29.01001	19.750977	142.81598	-92.87459	4.6910987
1448135000186	0.7608489990234375	9.64495849609375	-0.529632568359375	-6.66396178875808	0	-17.895508	-28.41034	20.352173	142.72421	-92.852425	4.6435995
1448135000226	0.7358551025390625	9.6806640625	-0.536773681640625	-6.667561707565964	0	-17.895508	-28.860474	20.20111	142.63037	-92.836815	4.6060324
1448135000266	0.7572784423828125	9.639007568359375	-0.443939208984375	-6.654130400591416	0	-18.345642	-29.611206	19.750977	142.55154	-92.781975	4.554711
1448135000310	0.6941986083984375	9.72589111328125	-0.491546630859375	-6.655640925238743	0	-18.495178	-29.611206	19.151306	142.30905	-92.750694	4.4457626
1448135000351	0.7477569580078125	9.64971923828125	-0.4617919921875	-6.654507963891034	0	-18.19458	-28.111267	20.20111	142.22784	-92.71809	4.4057417
1448135000392	0.8179779052734375	9.627105712890625	-0.53558349609375	-6.658664148990594	0	-18.345642	-28.260803	19.902039	142.19888	-92.68853	4.415163
1448135000432	0.7965545654296875	9.61639404296875	-0.415374755859375	-6.644705970697458	0	-17.59491	-29.611206	19.750977	142.17365	-92.64865	4.4224243
1448135000472	0.7513275146484375	9.67828369140625	-0.493927001953125	-6.654507963891034	0	-18.495178	-28.860474	19.902039	142.08557	-92.6207	4.392527
1448135000513	0.6763458251953125	9.6663818359375	-0.477264404296875	-6.6656664991382035	0	-18.495178	-30.06134	20.051575	141.96558	-92.59636	4.3376102
1448135000553	0.7608489990234375	9.684234619140625	-0.4237060546875	-6.6409440547847645	0	-17.744446	-28.860474	19.902039	141.90747	-92.562805	4.314099
1448135000593	0.8263092041015625	9.674713134765625	-0.410614013671875	-6.630059692496361	0	-18.345642	-28.260803	19.451904	141.874	-92.51666	4.3251395
1448135000633	0.8036956787109375	9.66162109375	-0.384429931640625	-6.631558765492908	0	-18.19458	-29.01001	19.451904	141.82602	-92.48108	4.3204145
1448135000674	0.8013153076171875	9.655670166015625	-0.3856201171875	-6.630247037930381	0	-18.19458	-29.310608	19.902039	141.78946	-92.4504	4.3099813
1448135000714	0.7703704833984375	9.667572021484375	-0.3570556640625	-6.631558765492908	0	-18.644714	-28.860474	19.451904	141.78268	-92.39321	4.303155
1448135000755	0.7608489990234375	9.643768310546875	-0.30706787109375	-6.628935851843911	0	-18.495178	-28.41034	20.051575	141.72055	-92.35232	4.290095
1448135000795	0.7751312255859375	9.6473388671875	-0.3284912109375	-6.629497722477927	0	-18.045044	-29.310608	20.051575	141.67798	-92.2966	4.271807
1448135000836	0.7548980712890625	9.684234619140625	-0.267791748046875	-6.617346021028927	0	-18.19458	-29.760742	19.902039	141.67511	-92.18427	4.271262
1448135000876	0.8310699462890625	9.653289794921875	-0.310638427734375	-6.616972856668578	0	-18.945313	-29.161072	19.451904	141.69177	-92.15411	4.292408
1448135000917	0.8191680908203125	9.684234619140625	-0.370147705078125	-6.6233226000735	0	-18.045044	-29.01001	19.60144	141.672	-92.124084	4.3481035
1448135000957	0.7989349365234375	9.6663818359375	-0.36419677734375	-6.6283740805416	0	-18.79425	-29.161072	20.051575	141.66962	-92.075264	4.4067554
1448135000998	0.7917938232421875	9.6568603515625	-0.39276123046875	-6.635497203757668	0	-18.495178	-29.460144	19.60144	141.65802	-92.05471	4.4360967
1448135001038	0.7632293701171875	9.6568603515625	-0.379669189453125	-6.637937737746958	0	-19.395447	-29.910278	19.750977	141.58435	-92.050766	4.45072
1448135001078	0.7441864013671875	9.6568603515625	-0.38323974609375	-6.6415080571275755	0	-18.644714	-29.01001	19.451904	141.55652	-92.05194	4.4523654
1448135001119	0.7560882568359375	9.686614990234375	-0.408233642578125	-6.638876905332129	0	-18.19458	-28.41034	19.60144	141.47693	-92.053474	4.4534507
1448135001159	0.7989349365234375	9.65924072265625	-0.35467529296875	-6.627999621498333	0	-18.045044	-29.611206	19.302368	141.36813	-92.03756	4.462537
1448135001199	0.8191680908203125	9.619964599609375	-0.391571044921875	-6.636811103952218	0	-18.644714	-28.41034	19.451904	141.3244	-92.03579	4.4887495
1448135001240	0.8120269775390625	9.68304443359375	-0.36419677734375	-6.623696508879187	0	-18.345642	-29.161072	19.60144	141.27634	-92.02459	4.5008936
1448135001280	0.8382110595703125	9.641387939453125	-0.422515869140625	-6.635309548167684	0	-18.945313	-29.161072	19.151306	141.20474	-92.0476	4.50402
1448135001321	0.8441619873046875	9.658050537109375	-0.382049560546875	-6.625379642359368	0	-18.79425	-29.460144	19.00177	141.11087	-92.059845	4.5167594
1448135001361	0.8536834716796875	9.62115478515625	-0.36181640625	-6.626502226253736	0	-18.945313	-29.760742	19.151306	141.05035	-92.06704	4.541638
1448135001402	0.8655853271484375	9.62115478515625	-0.382049560546875	-6.624631473120029	0	-19.094849	-29.611206	19.151306	141.034	-92.065765	4.56242
1448135001442	0.7953643798828125	9.67828369140625	-0.384429931640625	-6.630247037930381	0	-19.395447	-29.611206	19.750977	140.98163	-92.04812	4.600601
1448135001483	0.7418060302734375	9.629486083984375	-0.390380859375	-6.647341977159382	0	-18.495178	-27.960205	19.60144	140.901	-92.04644	4.6017556
1448135001523	0.7810821533203125	9.712799072265625	-0.393951416015625	-6.628561326608766	0	-18.79425	-29.161072	19.302368	140.82721	-92.04271	4.601808
1448135001563	0.7929840087890625	9.64971923828125	-0.42132568359375	-6.644517768607853	0	-18.495178	-29.01001	19.302368	140.7561	-92.05085	4.6057725
1448135001604	0.7763214111328125	9.646148681640625	-0.398712158203125	-6.640568109040858	0	-18.495178	-29.760742	19.60144	140.6796	-92.05814	4.589744
1448135001645	0.8370208740234375	9.64019775390625	-0.355865478515625	-6.625192583554558	0	-19.094849	-29.310608	19.302368	140.59485	-92.06189	4.587081
1448135001685	0.8239288330078125	9.62115478515625	-0.379669189453125	-6.633996269826479	0	-19.395447	-29.460144	18.701172	140.49762	-92.06427	4.594545
1448135001726	0.8858184814453125	9.634246826171875	-0.33087158203125	-6.626502226253736	0	-18.79425	-28.260803	19.451904	140.43689	-92.06536	4.5806227
1448135001772	0.8477325439453125	9.643768310546875	-0.322540283203125	-6.617719229057149	0	-18.79425	-29.161072	19.302368	140.36835	-92.052605	4.606254
1448135001812	0.8822479248046875	9.6806640625	-0.33087158203125	-6.607843928450711	0	-18.79425	-29.01001	19.302368	140.32599	-92.04309	4.63212
1448135001853	0.8858184814453125	9.646148681640625	-0.298736572265625	-6.607657895050254	0	-18.345642	-27.960205	19.151306	140.31866	-92.01528	4.6588345
1448135001893	0.8858184814453125	9.61163330078125	-0.31182861328125	-6.615107689348866	0	-17.895508	-28.559875	19.302368	140.33081	-91.98808	4.700978
1448135001933	0.8370208740234375	9.7044677734375	-0.296356201171875	-6.605798155728933	0	-18.495178	-29.910278	18.852234	140.34479	-91.9551	4.7225266
1448135001974	0.8382110595703125	9.665191650390625	-0.313018798828125	-6.614361927560412	0	-18.495178	-29.760742	19.151306	140.34665	-91.9263	4.7337785
1448135002014	0.8762969970703125	9.67352294921875	-0.327301025390625	-6.609332585331899	0	-19.094849	-29.910278	19.302368	140.31683	-91.90999	4.7419806
1448135002054	0.8036956787109375	9.636627197265625	-0.284454345703125	-6.6197726544612685	0	-18.945313	-30.06134	19.151306	140.24426	-91.89213	4.7332115
1448135002095	0.8655853271484375	9.64971923828125	-0.314208984375	-6.612684600203899	0	-18.495178	-29.161072	19.00177	140.18481	-91.8921	4.740005
1448135002135	0.8441619873046875	9.684234619140625	-0.320159912109375	-6.611566871167696	0	-18.644714	-30.06134	19.302368	140.1677	-91.8777	4.748941
1448135002175	0.8310699462890625	9.65447998046875	-0.263031005859375	-6.609332585331899	0	-18.345642	-29.460144	19.151306	140.1333	-91.8623	4.7537007
1448135002216	0.8132171630859375	9.652099609375	-0.293975830078125	-6.617346021028927	0	-18.345642	-28.260803	19.00177	140.08838	-91.85147	4.745818
1448135002257	0.8643951416015625	9.652099609375	-0.32135009765625	-6.615667125070681	0	-18.345642	-28.559875	19.151306	140.07959	-91.8362	4.760201
1448135002297	0.8846282958984375	9.66162109375	-0.26422119140625	-6.600039818396949	0	-19.094849	-27.51007	19.451904	140.07813	-91.83529	4.772877
1448135002337	0.8405914306640625	9.646148681640625	-0.274932861328125	-6.611008153256026	0	-18.644714	-29.460144	19.00177	140.0506	-91.79758	4.8111176
1448135002378	0.8417816162109375	9.679473876953125	-0.313018798828125	-6.611566871167696	0	-18.345642	-29.611206	19.302368	140.04099	-91.77877	4.8199725
1448135002418	0.8739166259765625	9.646148681640625	-0.32611083984375	-6.613802720532755	0	-18.79425	-29.760742	19.451904	140.00195	-91.777176	4.82897
1448135002458	0.8858184814453125	9.63067626953125	-0.313018798828125	-6.616226658890207	0	-18.495178	-28.41034	19.00177	139.98859	-91.77873	4.8602915
1448135002498	0.8524932861328125	9.684234619140625	-0.295166015625	-6.606355964047673	0	-18.19458	-28.111267	19.151306	139.97516	-91.77334	4.880528
1448135002539	0.8322601318359375	9.655670166015625	-0.289215087890625	-6.613057263482929	0	-18.644714	-28.260803	19.451904	139.97168	-91.76769	4.882483
1448135002579	0.8941497802734375	9.629486083984375	-0.343963623046875	-6.6160401367140995	0	-18.79425	-29.01001	19.151306	139.98346	-91.75911	4.900133
1448135002620	0.8941497802734375	9.650909423828125	-0.3046875	-6.606541921761174	0	-18.644714	-27.810669	19.451904	139.99811	-91.7561	4.9127436
1448135002660	0.8703460693359375	9.691375732421875	-0.355865478515625	-6.611939404061491	0	-18.79425	-29.611206	18.701172	140.02258	-91.76039	4.940789
1448135002700	0.8727264404296875	9.655670166015625	-0.295166015625	-6.607657895050254	0	-18.644714	-29.01001	19.151306	140.03485	-91.74761	4.9436746
1448135002741	0.8679656982421875	9.648529052734375	-0.33087158203125	-6.615107689348866	0	-18.79425	-30.06134	19.151306	140.04053	-91.74549	4.947803
1448135002781	0.9096221923828125	9.586639404296875	-0.28564453125	-6.6111943817052445	0	-18.79425	-29.161072	19.451904	140.06244	-91.7382	4.9645996
1448135002822	0.8774871826171875	9.65924072265625	-0.2999267578125	-6.607099859749817	0	-18.19458	-29.910278	19.00177	140.06998	-91.74104	4.9743295
1448135002862	0.8322601318359375	9.6759033203125	-0.296356201171875	-6.611008153256026	0	-18.345642	-29.910278	19.302368	140.06305	-91.73548	4.9631543
1448135002902	0.9072418212890625	9.65924072265625	-0.258270263671875	-6.595959521797335	0	-18.644714	-29.611206	18.852234	140.0935	-91.71254	4.976894
1448135002943	0.9465179443359375	9.681854248046875	-0.2999267578125	-6.592810113499901	0	-19.395447	-29.611206	18.701172	140.11118	-91.70901	4.9921904
1448135002983	0.8786773681640625	9.65447998046875	-0.298736572265625	-6.607471872467876	0	-18.945313	-29.01001	18.852234	140.12866	-91.69824	5.001859
1448135003023	0.8762969970703125	9.631866455078125	-0.22613525390625	-6.600039818396949	0	-18.644714	-29.611206	18.852234	140.13562	-91.69185	5.0041785
1448135003064	0.9298553466796875	9.642578125	-0.29754638671875	-6.601153527983826	0	-18.19458	-29.161072	19.00177	140.1503	-91.686325	5.014905
1448135003104	0.9655609130859375	9.6759033203125	-0.303497314453125	-6.59132910644448	0	-18.045044	-29.460144	19.00177	140.17871	-91.68141	5.0399985
1448135003144	0.9048614501953125	9.629486083984375	-0.32135009765625	-6.610821935658948	0	-18.495178	-30.06134	19.151306	140.17355	-91.68782	5.039551
1448135003185	0.9024810791015625	9.63543701171875	-0.260650634765625	-6.6007822484653484	0	-18.19458	-29.01001	19.151306	140.17389	-91.67295	5.028853
1448135003225	0.8941497802734375	9.65924072265625	-0.329681396484375	-6.609146465318798	0	-18.045044	-29.760742	19.00177	140.17657	-91.673035	5.03161
1448135003265	0.9346160888671875	9.62115478515625	-0.28802490234375	-6.602267624655693	0	-18.79425	-29.760742	18.852234	140.17538	-91.67728	5.0335736
1448135003306	0.9120025634765625	9.66876220703125	-0.29754638671875	-6.5998542377374125	0	-20.144653	-28.860474	16.151428	140.17105	-91.67741	5.029292
1448135003346	0.8965301513671875	9.569976806640625	-0.260650634765625	-6.611939404061491	0	-18.19458	-29.01001	19.151306	140.16833	-91.66091	5.014314
1448135003387	0.9155731201171875	9.629486083984375	-0.367767333984375	-6.616413191971795	0	-18.79425	-28.260803	19.151306	140.1936	-91.63199	5.0184245
1448135003427	0.8120269775390625	9.747314453125	-0.352294921875	-6.611753132184726	0	-17.895508	-30.360413	18.852234	140.16266	-91.59979	5.036925
1448135003468	0.7322845458984375	9.7139892578125	-0.34515380859375	-6.6283740805416	0	-17.59491	-28.111267	18.701172	139.97736	-91.53418	5.018961
1448135003509	0.8013153076171875	9.579498291015625	-0.32135009765625	-6.634934270296354	0	-18.19458	-30.06134	18.4021	139.52386	-91.46607	4.9815593
1448135003550	0.7025299072265625	9.722320556640625	-0.217803955078125	-6.611753132184726	0	-18.19458	-29.760742	18.551636	139.31793	-91.43097	4.9594884
1448135003590	0.7227630615234375	9.627105712890625	-0.09283447265625	-6.603939496331556	0	-18.045044	-30.210876	18.251038	138.58731	-91.29156	4.863623
1448135003631	0.8334503173828125	9.52593994140625	-0.046417236328125	-6.595218206680972	0	-18.495178	-29.161072	17.951965	138.07239	-91.17486	4.8547564
1448135003671	0.8382110595703125	9.65924072265625	-0.032135009765625	-6.571585815724923	0	-18.79425	-29.310608	18.101501	137.48187	-91.00389	4.877827
1448135003712	0.8584442138671875	9.677093505859375	-0.060699462890625	-6.570114520836539	0	-18.945313	-29.760742	17.800903	136.81921	-90.79645	4.926286
1448135003752	0.6918182373046875	9.671142578125	0.084503173828125	-6.574346298747913	0	-18.79425	-29.611206	17.651367	136.12479	-90.57409	4.9241033
1448135003793	0.6692047119140625	9.717559814453125	0.163055419921875	-6.558551363312263	0	-18.945313	-30.360413	17.201233	135.263	-90.38031	4.9025702
1448135003833	0.8953399658203125	9.61163330078125	0.293975830078125	-6.520120257680007	0	-19.694519	-29.611206	16.90216	134.30109	-90.175766	4.9456344
1448135003874	1.0536346435546875	9.760406494140625	0.38323974609375	-6.460366164209521	0	-20.594788	-29.01001	16.751099	133.27554	-89.93077	5.0324936
1448135003914	1.2654876708984375	9.60211181640625	0.55224609375	-6.427273797773484	0	-20.895386	-30.210876	16.452026	132.24728	-89.68856	5.172853
1448135003954	1.4333038330078125	9.5521240234375	0.59033203125	-6.404283158832012	0	-20.445251	-29.910278	16.601563	131.31168	-89.49877	5.374895
1448135003995	1.3761749267578125	9.615203857421875	0.4713134765625	-6.420940203041335	0	-20.895386	-29.760742	16.001892	130.35556	-89.39461	5.583082
1448135004035	1.3987884521484375	9.600921630859375	0.47369384765625	-6.419358654795312	0	-21.044922	-30.06134	15.701294	129.49612	-89.320786	5.758412
1448135004076	1.3380889892578125	9.5235595703125	0.1904296875	-6.48213338908776	0	-21.495056	-30.960083	15.551758	128.6948	-89.346825	5.9257226
1448135004116	1.0381622314453125	9.61163330078125	0.07379150390625	-6.531911154302929	0	-21.94519	-30.06134	15.551758	127.827484	-89.46181	6.0254292
1448135004157	0.7929840087890625	9.441436767578125	0.05712890625	-6.598555473716552	0	-22.694397	-30.509949	15.101624	126.764435	-89.46975	6.0013695
1448135004197	0.8096466064453125	9.836578369140625	-0.257080078125	-6.58338035227803	0	-22.994995	-29.01001	15.101624	125.47705	-89.53303	6.083668
1448135004237	0.5049591064453125	9.50689697265625	-0.42132568359375	-6.709741850922485	0	-22.994995	-29.01001	14.801025	124.03641	-89.65411	6.103712
1448135004277	0.9203338623046875	9.824676513671875	-0.567718505859375	-6.616413191971795	0	-24.64447	-29.01001	14.350891	122.40976	-89.80867	6.177744
1448135004318	1.3476104736328125	9.888946533203125	-0.3094482421875	-6.500982241600152	0	-24.795532	-27.810669	13.751221	120.86395	-89.97129	6.3458457
1448135004358	1.5380401611328125	9.853240966796875	0.0142822265625	-6.429387635565067	0	-24.64447	-29.310608	13.452148	119.91208	-90.07427	6.5139914
1448135004398	1.5475616455078125	9.54974365234375	0.01904296875	-6.472481185890106	0	-24.64447	-29.310608	13.601685	119.43555	-90.18717	6.6800246
1448135004439	1.6546783447265625	9.43310546875	-0.236846923828125	-6.512523970268986	0	-24.494934	-27.960205	13.751221	119.382996	-90.36518	6.842591
1448135004479	1.4928131103515625	9.643768310546875	-0.19281005859375	-6.498462856182548	0	-24.945068	-29.01001	13.601685	119.80066	-90.62778	7.03848
1448135004520	1.2654876708984375	9.755645751953125	-0.184478759765625	-6.514692549434912	0	-24.64447	-28.559875	14.051819	120.44873	-90.941574	7.2224693
1448135004560	1.0488739013671875	9.691375732421875	-0.286834716796875	-6.573425875862515	0	-25.094604	-27.661133	14.051819	121.187775	-91.19724	7.21924
1448135004601	1.1119537353515625	9.631866455078125	-0.467742919921875	-6.600967882849341	0	-24.0448	-27.810669	14.651489	121.98303	-91.49074	7.1941285
1448135004641	1.2845306396484375	9.717559814453125	-0.562957763671875	-6.575635331293502	0	-24.945068	-28.260803	14.801025	122.842285	-91.829185	7.1444306
1448135004682	1.2345428466796875	9.728271484375	-0.43798828125	-6.562401169810228	0	-23.44513	-28.559875	15.551758	123.95642	-92.19092	6.992186
1448135004722	1.5047149658203125	9.558074951171875	-0.43798828125	-6.547029225228851	0	-23.895264	-28.710938	15.852356	124.60455	-92.393616	6.922713
1448135004763	1.5511322021484375	9.59735107421875	-0.553436279296875	-6.5515966210354994	0	-23.44513	-29.310608	16.300964	126.87128	-93.0437	6.815832
1448135004803	1.2750091552734375	9.728271484375	-0.37371826171875	-6.546299035682489	0	-22.694397	-29.01001	17.800903	128.64386	-93.455284	6.633287
1448135004843	1.2821502685546875	9.727081298828125	-0.44036865234375	-6.555621237374956	0	-21.495056	-28.260803	18.101501	130.4729	-93.940704	6.420098
1448135004883	1.6475372314453125	9.893707275390625	-0.491546630859375	-6.482491416337822	0	-21.34552	-28.41034	19.151306	132.51715	-94.45201	6.3009396
1448135004924	1.7594146728515625	9.8282470703125	0.060699462890625	-6.393630441674773	0	-21.34552	-27.51007	19.451904	134.7425	-94.84172	6.264915
1448135004964	1.7296600341796875	9.537841796875	-0.45941162109375	-6.519033999147554	0	-20.594788	-27.360535	19.902039	137.0473	-95.38549	6.3205824
1448135005005	1.1548004150390625	9.746124267578125	-1.127105712890625	-6.680289239738544	0	-19.544983	-27.51007	21.250916	139.19653	-96.11851	6.2455854
1448135005045	0.6846771240234375	9.205780029296875	-1.9090576171875	-6.9814629172847535	0	-18.495178	-28.111267	21.852112	140.89044	-97.23132	6.054469
1448135005086	0.5977935791015625	8.967742919921875	-1.72576904296875	-7.00664152601245	0	-18.045044	-27.360535	23.051453	142.6919	-98.23556	5.68629
1448135005126	0.9393768310546875	9.3521728515625	-1.76385498046875	-6.88637831284191	0	-17.59491	-27.210999	23.501587	144.59033	-99.10979	5.0043097
1448135005166	0.6751556396484375	8.767791748046875	-1.44012451171875	-6.977673900580546	0	-15.194702	-26.760864	24.401855	146.80606	-99.610275	4.193438
1448135005207	0.7191925048828125	8.248870849609375	-1.412750244140625	-7.057907017807997	0	-14.89563	-27.51007	25.001526	149.12128	-99.78366	3.526319
1448135005247	1.2024078369140625	9.0379638671875	-1.23541259765625	-6.80577359608302	0	-14.294434	-27.810669	24.551392	151.08087	-99.28288	3.3368511
1448135005287	1.0821990966796875	9.122467041015625	-1.012847900390625	-6.774798846015015	0	-13.545227	-27.810669	24.551392	152.98053	-98.467834	3.2876341
1448135005327	1.3285675048828125	9.45452880859375	-0.470123291015625	-6.595218206680972	0	-13.095093	-28.559875	24.551392	155.20966	-97.336525	3.4474535
1448135005368	1.3404693603515625	9.6473388671875	0.09759521484375	-6.477125050044254	0	-11.74469	-29.611206	23.651123	157.52545	-95.70639	3.8328955
1448135005409	1.6392059326171875	9.76397705078125	0.49749755859375	-6.356863699644248	0	-11.445618	-30.960083	22.901917	160.37549	-92.89572	4.941497
1448135005450	1.9772186279296875	9.59735107421875	0.47607421875	-6.335196260747183	0	-10.995483	-31.410217	22.001648	161.94495	-91.10553	5.6985116
1448135005490	2.1652679443359375	9.62353515625	0.62841796875	-6.2827922485277465	0	-11.14502	-31.410217	21.852112	162.60919	-90.252205	6.074143
1448135005531	1.8712921142578125	9.9139404296875	1.06402587890625	-6.222013772434597	0	-10.694885	-32.460022	21.10138	164.64966	-88.08379	6.786756
1448135005571	1.4106903076171875	10.122222900390625	1.193756103515625	-6.239154231453064	0	-10.844421	-33.210754	20.352173	165.302	-87.51367	6.7985616
1448135005611	1.1655120849609375	10.755401611328125	1.08782958984375	-6.199836452699898	0	-10.095215	-34.111023	20.20111	166.64343	-86.66426	6.5837317
1448135005652	-0.4507598876953125	11.05889892578125	1.355621337890625	-6.347733079175123	0	-8.145142	-35.760498	20.651245	169.02838	-86.57764	5.8022237
1448135005692	-1.8658905029296875	8.972503662109375	1.069976806640625	-6.947126278172798	0	-7.244873	-33.95996	20.651245	170.14075	-86.97651	5.1266017
1448135005732	-0.5281219482421875	10.24481201171875	-0.2332763671875	-6.727084827722217	0	-7.8445435	-34.561157	21.10138	170.18378	-87.70782	4.984896
1448135005773	-0.3126983642578125	9.99725341796875	-0.75933837890625	-6.819089887079093	0	-7.545471	-34.86023	21.401978	169.77637	-88.22076	4.714373
1448135005813	-1.2208099365234375	10.8994140625	-0.401092529296875	-6.760699214242248	0	-7.244873	-33.95996	21.70105	169.39014	-88.21718	4.0201554
1448135005853	-0.9553985595703125	9.777069091796875	-0.329681396484375	-6.892498228314222	0	-6.6452026	-34.710693	21.70105	169.13379	-88.482574	3.5080392
1448135005894	-0.6816558837890625	9.49737548828125	-0.094024658203125	-6.853348411277992	0	-6.944275	-35.4599	21.852112	169.30359	-88.59018	3.1625907
1448135005934	-0.4947967529296875	9.396209716796875	-0.0523681640625	-6.831865591720046	0	-6.4941406	-35.160828	21.70105	169.50793	-88.16909	2.839403
1448135005974	-0.3365020751953125	8.871337890625	-0.35943603515625	-6.947334398438397	0	-6.1950684	-36.810303	21.250916	169.90851	-87.76884	2.6574032
1448135006015	-0.9161224365234375	9.1522216796875	0.2808837890625	-6.888212939956976	0	-5.595398	-36.210632	21.401978	170.44482	-87.69958	2.6941538
1448135006055	-1.0898895263671875	9.674713134765625	0.565338134765625	-6.781676572346985	0	-5.595398	-35.160828	21.70105	170.59534	-87.718834	2.7084029
1448135006096	-0.0758514404296875	9.798492431640625	0.063079833984375	-6.678386320406594	0	-6.045532	-35.760498	21.70105	170.28851	-87.78774	2.7496626
1448135006136	-0.0663299560546875	9.710418701171875	0.174957275390625	-6.673064294042939	0	-6.045532	-36.210632	21.70105	169.92346	-88.07656	2.9293654
1448135006176	-0.5578765869140625	9.667572021484375	0.567718505859375	-6.69574578605334	0	-6.4941406	-35.4599	22.001648	169.51892	-88.53092	3.1773367
1448135006217	-0.5733489990234375	9.650909423828125	0.43560791015625	-6.72225755225511	0	-6.944275	-35.310364	22.302246	168.81769	-88.99515	3.4973614
1448135006257	-0.1579742431640625	9.59735107421875	0.396331787109375	-6.670406667604169	0	-7.6950073	-35.01129	22.302246	167.99347	-89.27949	3.8460968
1448135006298	3.204345703125E-4	9.785400390625	0.291595458984375	-6.632121100372584	0	-7.8445435	-34.86023	22.601318	167.1795	-89.48905	4.2006664
1448135006339	0.0598297119140625	9.81158447265625	0.39990234375	-6.601710527908908	0	-8.444214	-34.561157	22.302246	166.26587	-89.75617	4.415894
1448135006379	0.4525909423828125	9.967498779296875	0.227325439453125	-6.543562280154761	0	-8.894348	-34.410095	22.75238	165.2074	-90.0655	4.5499234
1448135006419	0.9596099853515625	9.669952392578125	0.228515625	-6.511440215872728	0	-9.495544	-34.26056	22.901917	163.96906	-90.51763	4.909974
1448135006460	1.5439910888671875	9.348602294921875	-0.20233154296875	-6.537003413137897	0	-10.095215	-33.210754	23.501587	163.33856	-91.28946	5.575577
1448135006500	1.7903594970703125	9.546173095703125	-0.343963623046875	-6.491095668872296	0	-10.095215	-33.810425	23.200989	162.90735	-91.681725	5.966734
1448135006540	1.7582244873046875	9.493804931640625	-0.485595703125	-6.525375576736588	0	-10.844421	-33.66089	23.651123	162.60553	-92.22794	6.323467
1448135006581	1.7570343017578125	9.4569091796875	-1.0283203125	-6.615107689348866	0	-11.294556	-33.66089	23.651123	162.33661	-92.7863	6.573284
1448135006621	1.3440399169921875	9.30694580078125	-1.200897216796875	-6.7325003755609085	0	-10.995483	-33.36029	24.101257	161.84283	-93.17976	6.8968916
1448135006661	1.4547271728515625	9.408111572265625	-1.234222412109375	-6.703598818400513	0	-12.045288	-32.910156	24.101257	161.24585	-93.37155	7.3129888
1448135006702	1.8224945068359375	9.5235595703125	-1.588897705078125	-6.682955274351721	0	-12.6449585	-33.06122	23.35205	160.48438	-93.40945	7.751084
1448135006742	2.1735992431640625	9.900848388671875	-1.84478759765625	-6.608216027713419	0	-12.945557	-32.16095	24.25232	160.10553	-93.363	7.93407
1448135006783	1.9950714111328125	9.681854248046875	-1.9757080078125	-6.691922223508957	0	-13.244629	-33.36029	23.651123	158.97852	-93.412895	8.525294
1448135006823	1.5689849853515625	9.53546142578125	-1.922149658203125	-6.776369521483607	0	-14.294434	-32.76062	23.501587	158.43115	-93.73588	8.83009
1448135006863	1.6820526123046875	10.017486572265625	-1.938812255859375	-6.682383789698456	0	-14.294434	-32.460022	23.951721	157.96552	-94.26481	8.908203
1448135006904	2.3390350341796875	9.823486328125	-1.746002197265625	-6.57913672909527	0	-13.844299	-32.310486	24.25232	157.92896	-94.978065	8.926632
1448135006944	2.6925201416015625	9.32122802734375	-1.807891845703125	-6.611939404061491	0	-13.545227	-31.860352	24.700928	158.1701	-95.524155	8.871266
1448135006985	1.5904083251953125	8.93560791015625	-1.52105712890625	-6.80577359608302	0	-13.394165	-32.16095	24.700928	158.40948	-95.71279	8.559002
1448135007025	1.0595855712890625	8.760650634765625	-1.31634521484375	-6.890456829438763	0	-13.095093	-31.710815	24.85199	158.8136	-95.88563	7.92202
1448135007065	0.9369964599609375	8.4952392578125	-0.6712646484375	-6.8467062401944325	0	-11.894226	-33.06122	25.001526	159.25842	-95.83858	6.9261074
1448135007106	0.3300018310546875	8.55474853515625	-0.284454345703125	-6.873973869633598	0	-11.595154	-33.36029	23.651123	159.45795	-95.0811	5.506347
1448135007146	0.6715850830078125	9.258148193359375	1.048553466796875	-6.493250223238714	0	-10.844421	-33.66089	23.051453	159.50214	-93.62005	4.182519
1448135007186	1.9915008544921875	10.5899658203125	-0.4332275390625	-6.3211675826746845	0	-10.694885	-33.95996	22.451782	159.6018	-92.368004	3.806138
1448135007227	1.1690826416015625	9.18316650390625	-0.846221923828125	-6.723415409081109	0	-10.995483	-34.561157	22.75238	159.75641	-92.287636	3.8353212
1448135007267	-0.7780609130859375	8.65948486328125	0.10711669921875	-6.980199347329883	0	-10.394287	-33.810425	23.051453	160.56128	-92.42761	3.5655649
1448135007308	-0.4745635986328125	10.4852294921875	-0.599853515625	-6.738895259003942	0	-9.495544	-33.810425	22.601318	161.00842	-92.1132	3.4014845
1448135007348	0.3704681396484375	10.30194091796875	-1.024749755859375	-6.700531858159287	0	-9.794617	-34.561157	22.451782	160.63544	-91.50097	3.3647492
1448135007388	-0.1401214599609375	9.8282470703125	-0.95928955078125	-6.8521396331021265	0	-9.794617	-34.561157	22.451782	160.24121	-91.116104	3.3864202
1448135007429	0.2550201416015625	9.905609130859375	-0.527252197265625	-6.702831794222495	0	-9.944153	-34.26056	22.451782	160.03961	-91.138626	3.299379
1448135007469	-0.1508331298828125	9.308135986328125	0.044036865234375	-6.773228983839977	0	-10.095215	-35.610962	22.601318	160.1283	-91.28259	3.1552656
1448135007509	0.6787261962890625	9.819915771484375	0.408233642578125	-6.50404407914846	0	-9.344482	-35.01129	22.151184	160.414	-91.25321	3.0710037
1448135007550	0.6656341552734375	9.6854248046875	0.158294677734375	-6.5647866744528125	0	-8.894348	-34.710693	22.151184	160.75397	-91.188225	3.1994462
1448135007590	0.0872039794921875	10.012725830078125	0.23565673828125	-6.591699294246933	0	-9.194946	-34.561157	22.601318	160.98132	-91.214195	3.305308
1448135007631	-0.2674713134765625	10.031768798828125	0.624847412109375	-6.58338035227803	0	-9.495544	-35.760498	22.75238	161.68604	-91.247154	3.8431578
1448135007671	0.1169586181640625	9.8853759765625	0.101165771484375	-6.627999621498333	0	-9.794617	-35.160828	22.451782	161.49475	-91.4288	4.197649
1448135007711	1.1905059814453125	9.5140380859375	-0.3760986328125	-6.592810113499901	0	-10.545349	-34.410095	22.75238	160.91559	-91.678696	4.3441596
1448135007752	0.5466156005859375	9.28076171875	-0.61651611328125	-6.7716599336964345	0	-10.995483	-33.36029	23.051453	160.30524	-91.96465	4.4172964
1448135007792	0.2169342041015625	9.6282958984375	-0.7760009765625	-6.7950839157034935	0	-10.844421	-34.26056	22.901917	159.85474	-92.20999	4.4615874
1448135007832	0.8191680908203125	9.410491943359375	-1.04736328125	-6.776369521483607	0	-11.595154	-32.16095	23.051453	157.98926	-93.21617	4.5834455
1448135007873	1.2845306396484375	9.736602783203125	-1.3187255859375	-6.691731168586056	0	-11.894226	-32.611084	23.501587	156.66913	-94.07002	4.517439
1448135007913	1.5451812744140625	10.250762939453125	-1.807891845703125	-6.64621199088402	0	-12.794495	-32.009888	24.25232	155.47363	-95.07476	4.295453
1448135007953	1.2547760009765625	10.45428466796875	-1.153289794921875	-6.557635415086302	0	-12.6449585	-32.460022	24.401855	154.38916	-95.90972	3.9807644
1448135007993	1.4344940185546875	9.519989013671875	-1.190185546875	-6.6818124095626015	0	-12.794495	-31.710815	24.551392	153.49731	-96.46208	3.5660384
1448135008034	1.5404205322265625	8.722564697265625	-1.058074951171875	-6.77264049494389	0	-12.794495	-30.66101	24.101257	152.70227	-96.59232	3.2746527
1448135008074	1.4844818115234375	8.880859375	-1.362762451171875	-6.806170241556792	0	-13.394165	-32.16095	23.802185	152.02283	-96.48164	3.25
1448135008115	0.8965301513671875	8.6571044921875	-0.848602294921875	-6.856170819586952	0	-13.995361	-31.111145	23.951721	151.58704	-95.94942	3.018373
1448135008155	0.4847259521484375	8.97607421875	-0.0428466796875	-6.737731561762391	0	-13.844299	-32.910156	23.200989	151.29861	-94.89777	2.5658555
1448135008195	1.1476593017578125	9.86395263671875	-0.1380615234375	-6.509093303260922	0	-13.095093	-34.410095	22.451782	151.25525	-93.601036	2.46838
1448135008235	1.0143585205078125	10.4757080078125	-0.5855712890625	-6.504404481975996	0	-14.294434	-34.561157	22.151184	151.13925	-92.74476	2.9400403
1448135008276	0.9417572021484375	9.800872802734375	-1.19970703125	-6.717437820114843	0	-13.995361	-33.36029	21.70105	151.03372	-92.60861	3.4209793
1448135008316	0.8167877197265625	9.328369140625	-0.51654052734375	-6.703598818400513	0	-14.294434	-33.210754	22.601318	151.0567	-92.58453	3.6811934
1448135008357	0.4311676025390625	9.8568115234375	-0.2999267578125	-6.64621199088402	0	-13.844299	-34.111023	21.852112	151.35956	-92.19718	3.567001
1448135008397	0.1181488037109375	10.013916015625	-0.5474853515625	-6.7107028008389165	0	-13.244629	-33.95996	21.551514	151.74927	-91.81023	3.2292838
1448135008437	0.2383575439453125	9.850860595703125	-0.536773681640625	-6.715897093215232	0	-13.244629	-33.511353	21.551514	152.13501	-91.909805	2.8960516
1448135008478	0.5668487548828125	9.5330810546875	-0.17852783203125	-6.656774294101487	0	-12.945557	-32.910156	21.70105	152.6908	-92.199295	2.6070538
1448135008518	0.5382843017578125	9.70208740234375	-0.189239501953125	-6.636247937192394	0	-12.34436	-33.511353	21.852112	152.9079	-92.11457	2.3539467
1448135008558	0.7132415771484375	9.700897216796875	-0.1475830078125	-6.625753792970581	0	-12.794495	-33.36029	21.551514	153.00897	-92.07519	2.282804
1448135008599	0.6073150634765625	9.70208740234375	-0.315399169921875	-6.645270644191207	0	-12.34436	-33.95996	21.852112	153.26538	-92.02312	2.1654284
1448135008639	0.4514007568359375	9.62353515625	-0.50701904296875	-6.713395048801779	0	-12.34436	-33.810425	21.852112	153.68909	-92.00446	2.1355221
1448135008679	0.2895355224609375	9.7568359375	-0.36895751953125	-6.69574578605334	0	-11.445618	-34.111023	22.451782	153.9516	-92.00096	2.049218
1448135008720	0.3597564697265625	9.853240966796875	-0.403472900390625	-6.674583950211491	0	-11.14502	-34.26056	21.70105	154.25647	-91.99181	1.941056
1448135008760	0.4073638916015625	9.53070068359375	-0.329681396484375	-6.7068607885967335	0	-11.445618	-34.561157	22.302246	154.63458	-92.009125	1.8283138
1448135008800	0.4490203857421875	9.660430908203125	-0.3665771484375	-6.685242259287184	0	-10.995483	-34.86023	22.151184	155.04938	-92.06974	1.7355866
1448135008840	0.4335479736328125	9.688995361328125	-0.40704345703125	-6.689630337342102	0	-10.995483	-34.561157	22.151184	155.47107	-92.102646	1.669339
1448135008881	0.2681121826171875	9.639007568359375	-0.377288818359375	-6.719557575183458	0	-10.694885	-35.01129	22.151184	155.82422	-92.12522	1.5552167
1448135008921	0.2538299560546875	9.71875	-0.391571044921875	-6.711279513986828	0	-10.545349	-34.86023	22.302246	156.14563	-92.091225	1.4423484
1448135008962	0.2526397705078125	9.71160888671875	-0.3475341796875	-6.7055172088544515	0	-10.394287	-34.710693	22.302246	156.42578	-92.06663	1.347851
1448135009002	0.4133148193359375	9.648529052734375	-0.353485107421875	-6.690776069697064	0	-9.794617	-33.810425	22.451782	156.82385	-92.03566	1.3377947
1448135009043	0.2823944091796875	9.679473876953125	-0.380859375	-6.711279513986828	0	-10.545349	-34.410095	22.151184	157.16724	-92.01214	1.2576168
1448135009083	0.1336212158203125	9.66400146484375	-0.30706787109375	-6.725925591762363	0	-10.095215	-34.410095	22.001648	157.52881	-91.9949	1.1480781
1448135009123	0.2062225341796875	9.796112060546875	-0.303497314453125	-6.692304368517106	0	-9.495544	-34.710693	22.151184	157.84363	-91.98538	1.0281446
1448135009163	0.3478546142578125	9.519989013671875	-0.43798828125	-6.735793046334614	0	-9.495544	-34.710693	22.151184	158.21936	-92.01901	0.93774396
1448135009204	0.2883453369140625	9.536651611328125	-0.44512939453125	-6.743943056476788	0	-9.495544	-34.26056	22.451782	158.6629	-92.05948	0.80039096
1448135009244	0.1074371337890625	9.79254150390625	0.2523193359375	-6.620332909244296	0	-8.744812	-35.4599	22.451782	159.17523	-91.89194	0.6044856
1448135009284	0.2621612548828125	9.652099609375	-0.505828857421875	-6.739283256193462	0	-8.595276	-34.86023	22.151184	159.69434	-91.89719	0.4380345
1448135009325	0.2395477294921875	9.74017333984375	-0.6617431640625	-6.754063693045824	0	-8.294678	-34.410095	22.302246	160.36377	-91.87127	0.34165916
1448135009365	0.1621856689453125	9.62353515625	-0.65460205078125	-6.784825889578431	0	-7.545471	-34.111023	22.601318	161.07129	-91.85796	0.22557357
1448135009405	-0.2865142822265625	9.484283447265625	-0.62603759765625	-6.878848035201271	0	-7.394409	-34.111023	22.75238	161.65173	-91.92289	-0.006969354
1448135009446	0.0372161865234375	9.634246826171875	-0.1951904296875	-6.728244500222917	0	-6.944275	-34.410095	22.302246	162.26135	-91.930664	-0.2857686
1448135009486	0.0753021240234375	9.6568603515625	-0.314208984375	-6.737731561762391	0	-6.6452026	-34.710693	22.75238	162.96667	-91.79958	-0.5298347
1448135009526	-0.2877044677734375	9.4664306640625	-0.21185302734375	-6.81212622837579	0	-5.444336	-35.160828	22.302246	163.68384	-91.65458	-0.7276302
1448135009567	-0.3126983642578125	9.8282470703125	-0.00714111328125	-6.723029408498414	0	-5.744934	-34.86023	22.75238	164.21039	-91.46718	-0.9674492
1448135009608	-0.5340728759765625	9.6473388671875	-0.329681396484375	-6.8428887126566185	0	-5.744934	-34.111023	22.151184	164.44519	-91.26675	-1.2337042
1448135009648	-0.7661590576171875	9.6473388671875	-0.182098388671875	-6.857179477100893	0	-5.444336	-35.01129	22.302246	164.46661	-91.035866	-1.7278988
1448135009688	-0.5733489990234375	9.785400390625	-0.198760986328125	-6.8043857496052285	0	-4.8446655	-35.01129	22.001648	164.49542	-90.97146	-1.9797105
1448135009728	-0.4686126708984375	9.674713134765625	-0.20709228515625	-6.806765308102638	0	-4.3945313	-34.86023	22.151184	164.50073	-90.928566	-2.1729739
1448135009769	-0.2900848388671875	9.747314453125	-0.17852783203125	-6.760503845538266	0	-4.8446655	-35.4599	21.852112	164.48877	-90.89694	-2.2267175
1448135009809	-0.3412628173828125	9.686614990234375	-0.074981689453125	-6.761871689723623	0	-5.1452637	-35.610962	22.001648	164.47894	-90.87157	-2.2796075
1448135009850	-0.2698516845703125	9.677093505859375	-0.04046630859375	-6.746081169361098	0	-4.8446655	-35.160828	22.151184	164.45044	-90.795334	-2.3352718
1448135009890	-0.3829193115234375	9.705657958984375	-0.072601318359375	-6.765196158169461	0	-4.5455933	-35.310364	21.852112	164.432	-90.75127	-2.3356595
1448135009931	-0.1960601806640625	9.76397705078125	-0.04998779296875	-6.721485889120398	0	-4.6951294	-35.160828	21.70105	164.36047	-90.62434	-2.3013728
1448135009971	-0.2043914794921875	9.67828369140625	-0.020233154296875	-6.731919682045435	0	-4.6951294	-35.4599	21.401978	164.43713	-90.54408	-2.2374382
1448135010011	-0.2948455810546875	9.8282470703125	-0.041656494140625	-6.725732428175922	0	-4.6951294	-36.660767	21.852112	164.54095	-90.47346	-2.2451088
1448135010051	-0.3555450439453125	9.641387939453125	-0.0333251953125	-6.76480485564933	0	-4.3945313	-36.660767	22.151184	164.67444	-90.434456	-2.2879422
1448135010092	-0.4900360107421875	9.7520751953125	0.00714111328125	-6.762067146202629	0	-4.095459	-35.760498	21.852112	164.82208	-90.4002	-2.349231
1448135010132	-0.4674224853515625	9.71875	-0.091644287109375	-6.780103142651711	0	-4.3945313	-35.4599	22.001648	164.92322	-90.34914	-2.4068751
1448135010172	-0.5578765869140625	9.66162109375	-0.0904541015625	-6.8043857496052285	0	-5.2948	-37.260437	21.551514	164.93213	-90.33826	-2.468275
1448135010213	-0.5804901123046875	9.76873779296875	-0.134490966796875	-6.797653886513221	0	-4.8446655	-36.061096	21.852112	164.763	-90.33758	-2.537799
1448135010253	-0.5912017822265625	9.6187744140625	-0.141632080078125	-6.825670522176377	0	-4.244995	-35.760498	21.70105	164.57617	-90.3524	-2.574772
1448135010295	-0.3757781982421875	9.728271484375	-0.05474853515625	-6.7824635941848515	0	-4.244995	-35.910034	21.70105	164.39026	-90.350876	-2.6000948
1448135010335	-0.2734222412109375	9.681854248046875	-0.001190185546875	-6.739477273194131	0	-3.4942627	-35.310364	21.852112	164.26758	-90.31625	-2.5427234
1448135010375	-0.2412872314453125	9.681854248046875	-0.06903076171875	-6.745303500984784	0	-3.7948608	-35.610962	22.001648	164.27014	-90.30135	-2.4462037
1448135010415	-0.3781585693359375	9.6473388671875	-0.048797607421875	-6.771267797892882	0	-3.3447266	-35.310364	21.70105	164.2356	-90.337654	-2.401144
1448135010456	-0.3710174560546875	9.70684814453125	-0.10711669921875	-6.768720148975964	0	-3.6453247	-36.061096	21.401978	164.19507	-90.3766	-2.3736782
1448135010496	-0.3138885498046875	9.710418701171875	-0.103546142578125	-6.758160397713436	0	-3.3447266	-36.51123	21.852112	164.05652	-90.398445	-2.3469183
1448135010537	-0.2710418701171875	9.7044677734375	-0.08331298828125	-6.748804566188401	0	-4.095459	-35.310364	21.852112	164.03662	-90.41092	-2.2790716
1448135010577	-0.2341461181640625	9.6759033203125	-0.022613525390625	-6.737537655120409	0	-3.6453247	-36.660767	21.551514	164.09302	-90.444756	-2.1473582
1448135010618	-0.3293609619140625	9.669952392578125	-0.055938720703125	-6.7595271899147304	0	-3.944397	-36.061096	21.70105	164.10419	-90.45262	-2.0923672
1448135010659	-0.3757781982421875	9.679473876953125	-0.158294677734375	-6.7824635941848515	0	-4.244995	-35.4599	21.852112	164.02191	-90.50767	-2.0379937
1448135010699	-0.4019622802734375	9.671142578125	-0.19757080078125	-6.794688730212938	0	-4.244995	-35.4599	21.70105	163.91754	-90.557915	-2.0016205
1448135010739	-0.3674468994140625	9.755645751953125	-0.19281005859375	-6.774210052459395	0	-3.6453247	-35.760498	21.852112	163.76385	-90.61105	-2.001727
1448135010780	-0.2270050048828125	9.69970703125	-0.253509521484375	-6.770287679950757	0	-4.095459	-36.061096	21.70105	163.62085	-90.681625	-1.9375817
1448135010820	-0.1877288818359375	9.708038330078125	-0.123779296875	-6.74122397879686	0	-4.095459	-34.561157	21.551514	163.56049	-90.7139	-1.8680575
1448135010860	-0.3222198486328125	9.6378173828125	-0.072601318359375	-6.766370367912924	0	-4.3945313	-35.610962	21.551514	163.4314	-90.733246	-1.8547612
1448135010901	-0.2936553955078125	9.70684814453125	-0.046417236328125	-6.746081169361098	0	-5.2948	-35.760498	21.401978	163.23877	-90.72169	-1.8337644
1448135010941	-0.2270050048828125	9.681854248046875	-0.046417236328125	-6.739283256193462	0	-4.244995	-35.160828	22.302246	163.10913	-90.70805	-1.7853838
1448135010981	-0.1770172119140625	9.667572021484375	-0.123779296875	-6.746081169361098	0	-4.8446655	-35.310364	22.001648	163.0047	-90.73707	-1.6862338
1448135011022	-0.2032012939453125	9.750885009765625	-0.239227294921875	-6.755623693815627	0	-5.595398	-35.610962	21.551514	162.78534	-90.79773	-1.5952227
1448135011062	-0.1674957275390625	9.62591552734375	-0.2713623046875	-6.77558408200861	0	-5.89447	-36.061096	22.151184	162.62054	-90.85366	-1.5207932
1448135011102	-0.0913238525390625	9.796112060546875	-0.205902099609375	-6.724573700891176	0	-5.595398	-35.160828	22.151184	162.5462	-90.89756	-1.4680836
1448135011143	-0.0627593994140625	9.69732666015625	-0.074981689453125	-6.71474205189031	0	-4.6951294	-35.160828	21.852112	162.58252	-90.93258	-1.4225688
1448135011183	0.0074615478515625	9.747314453125	-0.0999755859375	-6.699382528525069	0	-4.6951294	-35.01129	22.151184	162.75568	-91.0031	-1.3580706
1448135011224	0.2526397705078125	9.741363525390625	0.067840576171875	-6.634559036823402	0	-5.2948	-35.310364	21.70105	163.18188	-91.068695	-1.2687814
1448135011265	0.2014617919921875	9.667572021484375	-0.40704345703125	-6.7305651568219655	0	-4.244995	-35.4599	22.302246	163.70343	-91.37771	-1.2442484
1448135011305	-0.4471893310546875	9.7996826171875	-0.409423828125	-6.816103476342462	0	-3.944397	-35.910034	22.302246	164.13397	-91.74124	-1.5168847
1448135011346	-0.5102691650390625	9.838958740234375	-0.3760986328125	-6.8145119427425245	0	-3.7948608	-36.210632	23.35205	164.49811	-92.08125	-1.8305726
1448135011386	-0.9161224365234375	9.555694580078125	-0.532012939453125	-6.959222398749761	0	-3.7948608	-34.111023	23.200989	164.75476	-92.35474	-2.1190393
1448135011426	-1.2743682861328125	9.79730224609375	-0.477264404296875	-6.970111051376357	0	-3.7948608	-36.061096	23.501587	164.52258	-92.55205	-2.4556289
1448135011466	-0.7578277587890625	9.59735107421875	-0.5379638671875	-6.925357308340342	0	-3.3447266	-35.610962	23.35205	163.88654	-92.68665	-2.6215374
1448135011507	-0.6685638427734375	9.753265380859375	-0.574859619140625	-6.9325953107029274	0	-4.095459	-34.710693	22.75238	163.15009	-92.833115	-2.5649986
1448135011547	-0.6042938232421875	9.919891357421875	-0.374908447265625	-6.816501492105308	0	-3.944397	-34.561157	22.901917	162.37726	-92.86468	-2.4801645
1448135011587	0.0276947021484375	9.729461669921875	-0.61175537109375	-6.7824635941848515	0	-5.1452637	-34.710693	21.401978	161.46533	-92.88058	-2.323909
1448135011628	0.1883697509765625	9.79254150390625	-0.751007080078125	-6.7685242644718855	0	-4.8446655	-36.810303	19.451904	160.28821	-92.80357	-1.5662225
1448135011668	0.9405670166015625	9.962738037109375	0.041656494140625	-6.4982829734967105	0	-4.3945313	-35.910034	17.501831	160.21265	-92.92783	-1.472651
1448135011709	0.1883697509765625	9.120086669921875	-1.529388427734375	-7.017501939127262	0	-3.6453247	-34.710693	16.151428	160.51898	-94.00027	-1.8324414
1448135011749	-0.8994598388671875	8.72137451171875	-0.996185302734375	-7.193990314241871	0	-3.4942627	-35.310364	17.501831	160.96606	-94.75794	-2.2598658
1448135011790	-0.8173370361328125	8.817779541015625	-1.158050537109375	-7.19080337797958	0	-2.59552	-34.86023	16.90216	160.85571	-95.709076	-2.5390139
1448135011831	-0.4162445068359375	9.82110595703125	-1.296112060546875	-6.95901340963116	0	-2.7450562	-33.210754	15.551758	160.3263	-96.63608	-2.9321764
1448135011871	-0.6507110595703125	9.94488525390625	1.3377685546875	-6.545934002228465	0	-2.59552	-34.561157	15.25116	160.03217	-97.04121	-3.2442532
1448135011912	-0.8423309326171875	10.543548583984375	-0.970001220703125	-6.851736816929748	0	-2.2949219	-32.76062	15.402222	158.87512	-98.38537	-4.359156
1448135011953	-0.3567352294921875	10.56378173828125	-1.407989501953125	-6.840279550885317	0	-1.8447876	-32.009888	18.701172	158.23425	-99.98204	-4.9170747
1448135011993	-0.1175079345703125	10.708984375	-2.000701904296875	-6.875597690868734	0	-3.0456543	-30.06134	19.902039	157.14185	-102.17436	-5.2302794
1448135012034	-0.8578033447265625	9.550933837890625	-3.602691650390625	-7.550399910740752	0	-3.1951904	-29.01001	20.651245	156.00012	-105.46824	-5.478087
1448135012075	-1.6361846923828125	9.1998291015625	-3.6134033203125	-7.819078657003354	0	-3.944397	-25.860596	23.200989	155.33374	-109.18193	-5.7071786
1448135012115	-0.8411407470703125	8.44049072265625	-3.428924560546875	-7.764438053669821	0	-3.944397	-24.510193	25.302124	154.51672	-112.404274	-5.8503876
1448135012155	-0.1591644287109375	8.2476806640625	-4.028778076171875	-7.791720807795244	0	-3.944397	-23.310852	26.9516	153.63867	-114.642334	-5.849796
1448135012196	-0.4876556396484375	7.775177001953125	-4.0323486328125	-8.002390275635289	0	-3.3447266	-22.261047	28.302002	153.0708	-116.375206	-5.8796053
1448135012236	-0.2198638916015625	7.56451416015625	-4.123992919921875	-8.011981001818823	0	-4.3945313	-21.360779	27.702332	152.6195	-117.53127	-5.8036966
1448135012277	-0.2900848388671875	7.64306640625	-4.1561279296875	-8.018625269279426	0	-4.3945313	-21.211243	27.101135	152.18567	-117.84078	-5.5868473
1448135012317	-0.5031280517578125	7.71685791015625	-4.245391845703125	-8.083713464938763	0	-5.1452637	-23.010254	27.401733	151.99945	-117.422485	-5.35894
1448135012357	-0.4650421142578125	7.853729248046875	-4.05615234375	-7.981076844836236	0	-4.8446655	-22.711182	26.501465	151.98688	-116.33123	-5.090752
1448135012398	-0.2924652099609375	8.1334228515625	-3.647918701171875	-7.758908875726203	0	-6.1950684	-24.960327	25.001526	151.91089	-113.676765	-4.474709
1448135012438	-0.6745147705078125	8.119140625	-3.514617919921875	-7.824175238610476	0	-6.1950684	-24.960327	22.601318	151.89056	-112.46952	-4.2083564
1448135012479	-0.5031280517578125	9.804443359375	-2.62554931640625	-7.222849626761335	0	-6.4941406	-27.661133	20.352173	151.85681	-107.613335	-3.2592022
1448135012519	-0.2674713134765625	10.28289794921875	-2.08282470703125	-6.990112483835418	0	-6.4941406	-28.710938	18.852234	151.8876	-105.99784	-2.99512
1448135012559	0.0514984130859375	9.82586669921875	-1.600799560546875	-6.929697924544908	0	-6.1950684	-30.509949	15.701294	151.71014	-101.2675	-2.0104623
1448135012599	0.5608978271484375	10.2091064453125	-1.266357421875	-6.723801457995359	0	-6.794739	-31.710815	15.101624	151.61707	-98.34166	-0.7449197
1448135012640	0.8941497802734375	11.338592529296875	-1.85906982421875	-6.58578139514943	0	-7.9956055	-32.910156	10.601807	150.99283	-96.223976	0.9048302
1448135012680	-1.0244293212890625	10.69232177734375	-1.353240966796875	-6.923086259915203	0	-7.8445435	-32.611084	9.251404	150.18607	-95.30155	1.936274
1448135012720	-1.3576812744140625	8.132232666015625	-1.92333984375	-7.604053394851413	0	-7.545471	-33.511353	12.101746	150.03625	-95.75822	1.6779503
1448135012760	0.0443572998046875	9.1712646484375	-1.050933837890625	-6.94920816296547	0	-6.045532	-33.210754	9.851074	149.8703	-96.575584	0.81793445
1448135012801	0.7941741943359375	10.057952880859375	-0.636749267578125	-6.610449533013631	0	-5.89447	-31.710815	12.55188	149.47177	-97.72939	0.17985794
1448135012841	0.4252166748046875	10.3709716796875	-1.1568603515625	-6.701873280475447	0	-6.3446045	-30.210876	12.251282	149.11346	-99.91876	-0.18884654
1448135012882	-0.1793975830078125	9.899658203125	-2.066162109375	-7.03999585217867	0	-7.095337	-30.06134	13.751221	148.97125	-103.05758	-0.68071264
1448135012922	-0.5923919677734375	10.04962158203125	-2.545806884765625	-7.1776415124060655	0	-6.794739	-28.111267	19.00177	148.51147	-105.98438	-1.3401108
1448135012962	-0.2758026123046875	9.062957763671875	-3.462249755859375	-7.499024346742275	0	-6.3446045	-26.760864	19.451904	148.19638	-109.20112	-2.2548544
1448135013002	0.5644683837890625	8.613067626953125	-3.86572265625	-7.501862844814578	0	-6.794739	-24.810791	22.001648	147.56042	-112.70377	-2.4095528
1448135013043	0.4728240966796875	9.4188232421875	-4.264434814453125	-7.4344253596301	0	-7.244873	-23.310852	24.25232	147.04059	-115.43104	-2.5438886
1448135013083	0.0229339599609375	7.938232421875	-3.981170654296875	-7.811607336469865	0	-6.4941406	-21.810913	27.101135	147.12231	-117.4424	-3.24866
1448135013123	-0.3329315185546875	7.6478271484375	-4.465576171875	-8.118607269563102	0	-7.545471	-21.510315	27.702332	147.10736	-118.86202	-3.6877728
1448135013163	-0.5447845458984375	7.501434326171875	-4.916656494140625	-8.37831666461699	0	-7.394409	-21.06018	27.851868	146.9126	-119.56394	-3.6653857
1448135013204	-0.2186737060546875	7.444305419921875	-4.54888916015625	-8.202481422359053	0	-7.394409	-22.261047	26.9516	146.74622	-119.36747	-3.5798938
1448135013244	-0.0699005126953125	7.6097412109375	-3.90142822265625	-7.899137686981486	0	-7.394409	-21.659851	26.651001	146.73453	-118.41415	-3.554471
1448135013284	-0.0341949462890625	8.2572021484375	-3.904998779296875	-7.728618185148974	0	-7.8445435	-22.860718	25.001526	146.7378	-116.84013	-3.4255145
1448135013324	-0.1008453369140625	8.3619384765625	-3.750274658203125	-7.682731246652629	0	-6.944275	-23.760986	25.151062	146.96838	-114.586525	-3.2777033
1448135013365	-0.7352142333984375	9.16888427734375	-2.93023681640625	-7.4606602677095335	0	-7.9956055	-28.111267	19.60144	147.13867	-111.6341	-2.906559
1448135013405	-0.4138641357421875	10.071044921875	-2.433929443359375	-7.118989287345833	0	-7.545471	-28.260803	17.651367	146.96014	-108.239044	-2.1467874
1448135013445	0.0717315673828125	10.124603271484375	-2.34228515625	-7.004092251104881	0	-7.545471	-31.260681	14.201355	146.87915	-104.71472	-1.6119281
1448135013485	-0.1698760986328125	10.074615478515625	-2.18280029296875	-7.027762277693412	0	-7.095337	-32.310486	11.801147	146.70026	-101.58352	-1.0898311
1448135013526	0.0086517333984375	9.619964599609375	-1.86383056640625	-7.020063481918537	0	-6.794739	-32.611084	13.601685	146.28546	-99.15894	-0.38236022
1448135013566	0.5585174560546875	11.89202880859375	-1.555572509765625	-6.505846486802928	0	-7.545471	-32.910156	9.101868	145.67587	-97.076584	0.21652094
1448135013607	-1.3053131103515625	9.072479248046875	-1.657928466796875	-7.334912788620203	0	-6.6452026	-31.860352	12.402344	145.305	-97.05644	0.13102877
1448135013647	-0.3007965087890625	8.953460693359375	-2.123291015625	-7.251336184080925	0	-6.6452026	-31.111145	9.851074	144.79694	-98.00789	-0.40927696
1448135013687	1.1071929931640625	10.3662109375	-0.9949951171875	-6.569562957660731	0	-5.89447	-33.210754	11.801147	144.86859	-99.33749	-1.0972773
1448135013727	0.6525421142578125	9.8568115234375	-0.791473388671875	-6.689248520133887	0	-6.045532	-31.410217	13.15155	144.83148	-101.19065	-1.2698635
1448135013768	0.6311187744140625	10.48046875	-2.595794677734375	-6.888416858612247	0	-6.1950684	-30.210876	14.201355	144.48569	-104.23839	-0.86598647
1448135013808	-0.7697296142578125	10.851806640625	-3.66815185546875	-7.274027163752553	0	-7.394409	-27.661133	19.00177	144.5304	-107.64943	-0.89898026
1448135013848	-0.2484283447265625	9.35693359375	-3.88714599609375	-7.521570623180155	0	-6.794739	-27.661133	20.802307	144.72171	-111.20942	-1.5600935
1448135013889	0.3407135009765625	7.9906005859375	-4.02520751953125	-7.731483962911275	0	-6.6452026	-25.410461	24.700928	144.40948	-114.99031	-2.0511622
1448135013929	0.1609954833984375	7.237213134765625	-4.231109619140625	-8.026965487235246	0	-7.545471	-22.860718	26.05133	144.1239	-118.14311	-2.5811567
1448135013970	-0.1912994384765625	8.795166015625	-4.502471923828125	-7.781409971059428	0	-8.444214	-22.109985	26.651001	144.17465	-120.38418	-3.3069057
1448135014010	-0.7721099853515625	7.2193603515625	-4.65838623046875	-8.46911574374044	0	-8.444214	-18.960571	27.401733	144.19751	-122.015564	-3.9494336
1448135014050	-0.9542083740234375	6.803985595703125	-5.099945068359375	-8.94067150796367	0	-8.294678	-19.560242	28.302002	144.01926	-123.09991	-4.320788
1448135014090	-0.7399749755859375	6.80279541015625	-5.0987548828125	-8.824731601609557	0	-9.04541	-19.26117	29.501343	143.72232	-123.43782	-4.426159
1448135014131	-0.5923919677734375	6.925384521484375	-4.6988525390625	-8.52826513986028	0	-7.8445435	-20.159912	28.302002	143.5203	-123.01233	-4.394367
1448135014171	-0.1508331298828125	7.084869384765625	-4.585784912109375	-8.274199483563962	0	-8.444214	-21.06018	27.702332	143.3518	-121.907425	-4.147333
1448135014211	-0.2734222412109375	8.2333984375	-4.32989501953125	-7.901322808419254	0	-8.744812	-20.761108	26.651001	143.2721	-119.94984	-3.7462273
1448135014251	-0.0687103271484375	8.291717529296875	-3.771697998046875	-7.6967874007150385	0	-8.294678	-23.460388	23.802185	143.42572	-117.629776	-3.3707106
1448135014292	-0.4579010009765625	8.615447998046875	-4.02044677734375	-7.772613712011173	0	-8.595276	-24.060059	23.951721	143.69003	-114.803535	-2.8692348
1448135014332	-0.1603546142578125	9.427154541015625	-3.13970947265625	-7.331303966370575	0	-8.744812	-27.059937	20.501709	143.96558	-111.33628	-2.1496675
1448135014373	0.5323333740234375	10.886322021484375	-2.199462890625	-6.770287679950757	0	-8.294678	-29.161072	17.951965	144.00537	-107.84291	-1.3207375
1448135014413	0.7084808349609375	10.77325439453125	-2.319671630859375	-6.779709913024126	0	-8.595276	-31.410217	14.952087	144.00897	-104.23263	-0.3659674
1448135014454	0.0110321044921875	9.72589111328125	-2.257781982421875	-7.038490571243559	0	-8.894348	-31.710815	11.801147	144.15628	-101.25748	0.496812
1448135014494	-0.0496673583984375	10.556640625	-2.26611328125	-6.935910189980191	0	-8.744812	-31.56128	11.952209	144.10626	-98.96171	1.0496249
1448135014534	-1.3910064697265625	9.83062744140625	-1.650787353515625	-7.201060973586451	0	-7.545471	-33.66089	8.651733	143.82068	-97.89676	1.2069769
1448135014574	-0.4888458251953125	8.78564453125	-1.751953125	-7.248310418843346	0	-7.095337	-33.66089	8.351135	143.43597	-98.23467	1.0594909
1448135014615	0.6846771240234375	10.01629638671875	-1.01165771484375	-6.69383341769762	0	-5.2948	-32.611084	10.151672	143.10938	-100.090706	0.2439768
1448135014655	1.1250457763671875	9.957977294921875	-2.062591552734375	-6.803196677341738	0	-4.9942017	-31.410217	11.351013	142.66644	-102.54922	0.11259915
1448135014695	0.1871795654296875	10.986297607421875	-3.081390380859375	-6.961940654490912	0	-6.944275	-29.611206	14.952087	142.69318	-106.18986	0.26936316
1448135014736	-0.1865386962890625	10.531646728515625	-3.831207275390625	-7.254365536468889	0	-7.9956055	-28.260803	16.452026	142.92435	-108.1182	0.053540148
1448135014776	0.2205047607421875	8.527374267578125	-3.722900390625	-7.564953587718323	0	-6.4941406	-24.810791	22.302246	143.45245	-113.353134	-1.5042112
1448135014816	0.5811309814453125	7.984649658203125	-4.250152587890625	-7.72919102443505	0	-6.794739	-24.060059	23.200989	142.99512	-116.422165	-1.8179811
1448135014857	0.3514251708984375	7.994171142578125	-4.35845947265625	-7.809818379286229	0	-7.095337	-22.109985	25.151062	142.61469	-118.864784	-2.0204916
1448135014897	-0.1817779541015625	7.718048095703125	-4.354888916015625	-8.022957315607766	0	-8.145142	-21.211243	26.651001	142.64575	-120.559456	-2.449334
1448135014937	-0.3912506103515625	7.870391845703125	-4.619110107421875	-8.115437344330921	0	-7.394409	-21.360779	26.9516	142.68835	-121.21228	-2.6502447
1448135014978	-0.5114593505859375	7.353851318359375	-4.814300537109375	-8.382489249157896	0	-7.244873	-20.159912	28.001404	142.9057	-122.52816	-3.091808
1448135015018	-0.6292877197265625	7.15509033203125	-5.1416015625	-8.630079260784287	0	-7.394409	-19.410706	27.252197	143.00366	-122.62229	-3.1826835
1448135015058	-0.2686614990234375	7.610931396484375	-4.65362548828125	-8.166891364546832	0	-7.394409	-22.109985	26.05133	143.07056	-121.89226	-3.1300137
1448135015099	-0.1270294189453125	7.54071044921875	-4.290618896484375	-8.039381243368817	0	-7.6950073	-20.610046	26.05133	143.03253	-120.648254	-2.9095795
1448135015139	-0.2412872314453125	8.089385986328125	-4.4893798828125	-7.973919211627319	0	-7.8445435	-23.460388	25.45166	142.93604	-118.81379	-2.5295398
1448135015179	-0.1186981201171875	8.2952880859375	-4.035919189453125	-7.771736177439092	0	-7.394409	-26.161194	22.451782	143.1688	-116.25369	-2.2642922
1448135015220	0.0157928466796875	8.448822021484375	-3.2373046875	-7.520268838364822	0	-7.244873	-27.661133	19.302368	143.51712	-113.205765	-1.9400918
1448135015260	-0.1401214599609375	9.919891357421875	-3.37060546875	-7.274967240551873	0	-7.9956055	-29.760742	16.751099	143.61133	-109.8603	-1.2575744
1448135015300	0.2431182861328125	10.548309326171875	-2.75408935546875	-6.971580025319762	0	-7.9956055	-30.509949	15.551758	143.31012	-106.28133	-0.478433
1448135015341	0.3502349853515625	9.89251708984375	-1.73529052734375	-6.889844688382043	0	-7.545471	-31.860352	15.101624	143.03613	-103.085915	0.001950019
1448135015381	0.5335235595703125	10.1900634765625	-2.34466552734375	-6.911963320071228	0	-7.545471	-34.561157	10.902405	142.90753	-100.78075	0.2918211
1448135015422	0.7406158447265625	11.1041259765625	-2.46844482421875	-6.744526030111239	0	-7.9956055	-34.111023	10.002136	142.63513	-99.373955	0.3296745
1448135015463	-1.2481842041015625	8.5380859375	-2.15899658203125	-7.541449861186418	0	-7.545471	-33.06122	12.701416	142.43561	-99.06619	0.24351232
1448135015503	-0.5114593505859375	9.09033203125	-2.32086181640625	-7.304998340211252	0	-7.095337	-33.210754	12.55188	142.06055	-99.869835	-0.14614402
1448135015544	0.8465423583984375	9.9710693359375	-0.910491943359375	-6.6590422561330875	0	-6.045532	-32.16095	14.501953	142.08185	-101.235435	-0.9070767
1448135015584	0.6620635986328125	9.91632080078125	-1.962615966796875	-6.871337076066746	0	-6.4941406	-31.860352	14.350891	142.21887	-103.2253	-1.0867689
1448135015625	-0.1817779541015625	10.31146240234375	-4.185882568359375	-7.368608638267393	0	-7.545471	-30.509949	16.300964	142.19571	-106.29705	-0.68540525
1448135015665	-0.8827972412109375	10.261474609375	-3.893096923828125	-7.464468397306432	0	-6.794739	-27.360535	19.151306	143.01059	-111.09514	-1.6847844
1448135015705	-0.2115325927734375	8.355987548828125	-4.121612548828125	-7.800897527740826	0	-6.794739	-26.460266	21.70105	142.96225	-112.545074	-2.2682457
1448135015745	0.2942962646484375	8.33099365234375	-4.083526611328125	-7.675458684726875	0	-5.595398	-24.21112	24.25232	142.4126	-116.51568	-3.6335635
1448135015786	-0.1555938720703125	7.7906494140625	-3.935943603515625	-7.8832924482869196	0	-6.794739	-24.21112	23.651123	142.34927	-117.72383	-3.9269083
1448135015827	-0.6066741943359375	8.2095947265625	-4.3846435546875	-8.01264432118877	0	-7.545471	-21.06018	25.001526	142.1919	-120.42489	-4.494669
1448135015868	-0.6876068115234375	7.351470947265625	-4.788116455078125	-8.437020619071657	0	-7.6950073	-20.310974	26.351929	141.98322	-121.561005	-4.718964
1448135015908	-0.8090057373046875	6.900390625	-5.09637451171875	-8.809097931843466	0	-7.244873	-20.159912	28.001404	141.83694	-122.185036	-4.8820686
1448135015948	-0.7221221923828125	6.85516357421875	-4.964263916015625	-8.725499881685183	0	-9.04541	-20.010376	27.702332	141.82782	-122.15591	-4.9354653
1448135015989	-0.3769683837890625	7.43597412109375	-4.522705078125	-8.214023264272742	0	-8.595276	-20.010376	26.05133	141.76971	-121.46946	-4.785338
1448135016030	-0.2698516845703125	7.722808837890625	-4.72027587890625	-8.15351764439455	0	-7.8445435	-21.06018	25.901794	141.86224	-120.21164	-4.5671096
1448135016071	-0.3543548583984375	8.3095703125	-4.10137939453125	-7.843481037845563	0	-8.595276	-22.261047	24.551392	142.14435	-118.18045	-4.332929
1448135016111	-0.3710174560546875	8.851104736328125	-3.364654541015625	-7.544867756948712	0	-8.595276	-22.860718	23.951721	142.28714	-116.88801	-4.196407
1448135016151	0.0027008056640625	8.34527587890625	-3.469390869140625	-7.5978479053932535	0	-8.744812	-26.611328	20.951843	142.2114	-112.5706	-3.4644198
1448135016192	-0.7590179443359375	10.669708251953125	-3.538421630859375	-7.282264705955681	0	-9.194946	-28.111267	17.800903	141.83203	-109.18761	-2.7289288
1448135016232	-1.0767974853515625	9.70208740234375	-2.986175537109375	-7.431918046583329	0	-9.04541	-30.360413	14.801025	141.64874	-106.0099	-1.9554152
1448135016273	-0.0758514404296875	9.3997802734375	-2.523193359375	-7.19877802110021	0	-9.645081	-31.860352	13.902283	141.56653	-103.66752	-1.3108295
1448135016313	1.2297821044921875	10.703033447265625	-2.312530517578125	-6.869512990301605	0	-9.194946	-33.210754	14.350891	141.53821	-101.86172	-0.83752704
1448135016353	1.0560150146484375	13.4749755859375	-1.78765869140625	-6.236819627318833	0	-8.894348	-32.611084	11.502075	141.42636	-100.44458	-0.56034744
1448135016394	-1.4076690673828125	7.662109375	-2.56365966796875	-7.88545954713133	0	-9.944153	-32.611084	10.902405	141.26764	-100.154	-0.5848878
1448135016434	-0.7971038818359375	8.423828125	-2.0518798828125	-7.445489168134718	0	-9.04541	-32.009888	11.502075	141.1308	-100.844284	-1.0942149
1448135016475	0.1931304931640625	10.088897705078125	-1.3187255859375	-6.812722478740206	0	-8.444214	-31.111145	15.551758	141.25922	-101.607025	-1.7638999
1448135016515	0.2728729248046875	9.72589111328125	-1.62103271484375	-6.912168911989406	0	-7.8445435	-30.509949	15.551758	141.0293	-102.19192	-1.9269907
1448135016555	0.6382598876953125	10.076995849609375	-2.269683837890625	-6.900473385515685	0	-7.8445435	-31.56128	13.902283	140.79358	-103.09964	-1.8919594
1448135016595	-0.3852996826171875	9.62115478515625	-2.581512451171875	-7.2269987417883375	0	-8.744812	-30.360413	15.551758	140.87079	-105.82797	-1.8990054
1448135016636	-1.2743682861328125	10.14959716796875	-4.81787109375	-7.792311592624845	0	-8.744812	-28.260803	17.352295	140.76074	-108.22217	-2.1423426
1448135016676	-0.6245269775390625	9.046295166015625	-3.833587646484375	-7.664596138660766	0	-7.545471	-27.059937	21.852112	141.0379	-111.010445	-3.1690884
1448135016716	-0.2793731689453125	8.653533935546875	-3.593170166015625	-7.62005235574755	0	-7.394409	-25.109863	23.651123	141.07489	-112.54098	-3.605446
1448135016757	0.1026763916015625	8.805877685546875	-4.27752685546875	-7.654617838903006	0	-6.6452026	-23.010254	23.501587	140.79419	-115.27178	-4.192942
1448135016797	-0.1889190673828125	8.701141357421875	-4.4036865234375	-7.779647665434245	0	-7.394409	-23.161316	24.25232	140.31592	-118.40679	-5.3383937
1448135016837	-0.7840118408203125	7.81683349609375	-4.313232421875	-8.157482286372971	0	-7.244873	-20.610046	25.752258	140.09283	-120.084625	-6.0180044
1448135016877	-0.8518524169921875	7.065826416015625	-4.95355224609375	-8.683914935999553	0	-7.244873	-21.360779	27.252197	139.59372	-121.3055	-6.1738944
1448135016918	-0.6661834716796875	7.08843994140625	-4.769073486328125	-8.520838364470912	0	-6.794739	-20.46051	27.851868	139.22284	-121.63277	-6.22704
1448135016958	-0.7935333251953125	7.043212890625	-4.619110107421875	-8.529662469026846	0	-7.545471	-20.610046	26.351929	139.17365	-121.571434	-6.2542934
1448135016999	-0.6566619873046875	7.632354736328125	-4.478668212890625	-8.226402374342749	0	-7.394409	-21.211243	25.45166	139.1012	-120.54033	-6.038447
1448135017040	-0.2531890869140625	8.20721435546875	-4.3560791015625	-7.909774713635389	0	-8.294678	-22.711182	24.401855	139.16391	-119.18732	-5.635274
1448135017080	-0.3138885498046875	8.622589111328125	-4.122802734375	-7.76065331761836	0	-7.545471	-22.860718	24.85199	139.2066	-117.22473	-5.152419
1448135017120	-0.5745391845703125	9.248626708984375	-3.8133544921875	-7.601892982678523	0	-8.294678	-24.661255	23.501587	139.36285	-114.8457	-4.6421494
1448135017161	-0.3900604248046875	8.29766845703125	-3.67767333984375	-7.749919496766011	0	-8.595276	-26.760864	20.501709	139.24847	-112.47609	-3.9346924
1448135017201	-0.4650421142578125	9.267669677734375	-3.819305419921875	-7.574264419592186	0	-8.744812	-27.51007	18.551636	139.01968	-109.76553	-3.02552
1448135017242	-0.2377166748046875	10.00201416015625	-2.626739501953125	-7.134979146772798	0	-9.645081	-29.310608	16.601563	139.13968	-106.98552	-2.1883438
1448135017282	0.2169342041015625	9.85919189453125	-2.618408203125	-7.075717744114951	0	-8.595276	-31.56128	15.551758	139.45755	-104.52928	-1.4961932
1448135017323	0.9369964599609375	11.191009521484375	-2.16375732421875	-6.649980184877094	0	-8.444214	-31.860352	15.852356	139.60211	-102.32151	-0.8669122
1448135017363	-1.0268096923828125	9.938934326171875	-2.024505615234375	-6.590218798676599	0	-9.344482	-33.36029	13.452148	139.6532	-100.902336	-0.5565975
1448135017403	-1.4528961181640625	8.16912841796875	-2.505340576171875	-7.7545542588838785	0	-9.944153	-32.76062	13.601685	139.67404	-100.84088	-0.67327577
1448135017443	-0.4602813720703125	8.9332275390625	-1.80194091796875	-7.223771076315073	0	-9.04541	-34.561157	12.850952	139.4574	-101.40105	-1.1786065
1448135017484	-0.0496673583984375	9.281951904296875	-1.61151123046875	-7.046025183873892	0	-8.294678	-33.210754	15.551758	139.56696	-101.92689	-1.9042588
1448135017524	0.3585662841796875	9.746124267578125	-1.372283935546875	-6.8515354294345885	0	-8.145142	-32.611084	16.001892	139.54471	-102.28539	-2.1121593
1448135017564	0.4002227783203125	9.937744140625	-1.89715576171875	-6.901292588171337	0	-7.9956055	-33.810425	14.651489	139.1568	-102.59289	-1.979639
1448135017605	0.1609954833984375	9.73779296875	-2.14947509765625	-7.02284114649056	0	-8.744812	-31.710815	16.300964	139.04807	-103.2841	-1.9087048
1448135017648	-1.3362579345703125	10.015106201171875	-4.147796630859375	-7.677973298170347	0	-9.495544	-30.06134	16.151428	138.35626	-106.12784	-2.0554774
1448135017688	-1.3076934814453125	9.781829833984375	-3.7657470703125	-7.636717680097244	0	-8.744812	-29.310608	20.051575	138.6702	-108.86912	-3.2390177
1448135017729	-0.3960113525390625	8.884429931640625	-3.490814208984375	-7.571067765806722	0	-8.294678	-26.760864	20.352173	138.85974	-112.02501	-4.577458
1448135017769	3.204345703125E-4	8.74755859375	-4.18231201171875	-7.6698812499999995	0	-7.394409	-25.410461	22.302246	138.61835	-114.68039	-5.2851486
1448135017809	-0.1472625732421875	8.9189453125	-4.043060302734375	-7.632060408149936	0	-7.244873	-23.910522	23.651123	138.48816	-116.78127	-5.9762373
1448135017850	-0.9220733642578125	7.941802978515625	-4.202545166015625	-8.128152965315202	0	-7.545471	-22.56012	24.101257	138.47339	-117.70405	-6.4362364
1448135017890	-1.0315704345703125	7.26220703125	-4.654815673828125	-8.551282939313113	0	-6.944275	-21.211243	26.651001	137.83835	-119.58368	-7.15476
1448135017931	-1.0458526611328125	7.0908203125	-4.823822021484375	-8.701545417690685	0	-7.545471	-21.96045	26.05133	137.34576	-120.023926	-7.1424294
1448135017971	-0.8970794677734375	7.113433837890625	-4.341796875	-8.437455195708946	0	-7.8445435	-21.659851	25.45166	137.19983	-119.77207	-7.0649657
1448135018012	-0.6126251220703125	7.537139892578125	-3.974029541015625	-8.088902346309983	0	-6.794739	-21.659851	24.700928	137.18823	-118.91563	-6.813358
1448135018052	-0.6876068115234375	8.18341064453125	-4.265625	-8.009330172453836	0	-6.944275	-22.410583	25.901794	137.19202	-117.47899	-6.230853
1448135018092	-0.9232635498046875	8.6666259765625	-3.7847900390625	-7.8169838592091905	0	-6.1950684	-23.310852	23.501587	137.43011	-115.26512	-5.5105996
1448135018133	-0.5566864013671875	8.846343994140625	-3.195648193359375	-7.549608772853987	0	-6.4941406	-26.760864	20.951843	137.86902	-112.59217	-4.780638
1448135018174	-0.5424041748046875	9.19744873046875	-3.533660888671875	-7.543552570759466	0	-7.394409	-28.260803	18.4021	137.99176	-109.94678	-3.7231364
1448135018214	0.1205291748046875	10.112701416015625	-2.208984375	-6.973889952038805	0	-7.095337	-30.960083	15.551758	137.96402	-106.91938	-2.3222704
1448135018254	0.4990081787109375	10.08770751953125	-2.447021484375	-6.95358506595791	0	-6.6452026	-31.260681	16.300964	137.85925	-103.81353	-1.0601707
1448135018295	0.9976959228515625	10.434051513671875	-1.943572998046875	-6.72631195527487	0	-6.944275	-33.36029	13.601685	138.2305	-101.208466	-0.22134651
1448135018335	-1.7671051025390625	11.988433837890625	-2.3470458984375	-6.720135942866568	0	-7.545471	-34.86023	13.301086	138.0086	-99.77614	0.52319807
1448135018376	-1.5373992919921875	8.991546630859375	-2.76361083984375	-7.640835354655673	0	-8.294678	-35.01129	13.002014	137.47089	-99.9524	0.92897207
1448135018417	0.3609466552734375	9.112945556640625	-1.262786865234375	-6.941097365787341	0	-6.3446045	-35.01129	13.15155	137.51752	-100.779076	0.51911515
1448135018457	1.5582733154296875	9.49737548828125	-1.03546142578125	-6.641132044400119	0	-5.444336	-33.06122	14.201355	137.40015	-100.892654	0.43468598
1448135018498	1.1381378173828125	9.556884765625	-1.3377685546875	-6.733855753866189	0	-5.2948	-32.611084	14.051819	137.16254	-100.74354	0.71219194
1448135018538	0.9477081298828125	10.22576904296875	-1.860260009765625	-6.754843593750324	0	-6.1950684	-33.66089	11.201477	136.98224	-100.49293	1.3405949
1448135018578	0.7429962158203125	10.6375732421875	-1.628173828125	-6.68371741657122	0	-6.944275	-32.76062	13.002014	136.8706	-100.74988	2.2267685
1448135018619	0.1883697509765625	10.3614501953125	-2.15899658203125	-6.9099082034400325	0	-7.9956055	-34.26056	11.502075	136.17126	-101.95475	2.4983547
1448135018659	-0.4638519287109375	8.910614013671875	-3.27777099609375	-7.533058469948879	0	-8.444214	-30.810547	15.701294	135.51166	-103.02534	2.4059188
1448135018699	0.4704437255859375	9.315277099609375	-2.598175048828125	-7.125640138986189	0	-7.9956055	-29.460144	17.201233	135.79388	-107.43702	1.670211
1448135018740	1.1548004150390625	8.319091796875	-2.714813232421875	-7.20677712536177	0	-7.8445435	-28.559875	16.90216	136.30072	-110.65543	1.3729635
1448135018780	0.9941253662109375	8.49761962890625	-4.040679931640625	-7.471848393623732	0	-9.04541	-26.161194	20.352173	136.67468	-113.23492	1.6466333
1448135018820	1.2381134033203125	8.848724365234375	-4.29180908203125	-7.399313418281189	0	-9.645081	-24.21112	22.001648	137.29169	-115.03798	1.8087877
1448135018860	0.5870819091796875	7.78826904296875	-4.20849609375	-7.765312450829517	0	-9.194946	-22.711182	24.401855	137.736	-116.388725	1.6142622
1448135018901	0.3466644287109375	7.696624755859375	-4.573883056640625	-7.943965809416758	0	-9.495544	-21.659851	25.001526	137.79852	-117.186295	1.4892874
1448135018941	0.3276214599609375	7.347900390625	-3.997833251953125	-7.888869935931333	0	-10.545349	-22.410583	23.802185	137.58038	-117.18769	1.488855
1448135018981	0.9750823974609375	7.595458984375	-3.831207275390625	-7.629598827183294	0	-10.694885	-23.910522	22.001648	137.50323	-116.627144	1.4465419
1448135019022	0.6953887939453125	7.995361328125	-3.355133056640625	-7.496704533657488	0	-11.595154	-24.21112	23.501587	137.42487	-116.09881	1.4362932
1448135019062	0.7049102783203125	8.1619873046875	-3.766937255859375	-7.548290825606813	0	-11.445618	-24.661255	23.200989	137.2905	-113.62574	1.5799035
1448135019103	0.5240020751953125	9.33074951171875	-3.050445556640625	-7.198093524969999	0	-12.34436	-27.810669	20.20111	137.2096	-111.31281	1.7267334
