timestamp	accel_x	accel_y	accel_z	accel_mag	temperature	mag_x	mag_y	mag_z	azimuth	pitch	roll
1448090690628	0.651275634765625	4.653411865234375	7.9235992431640625	-6.169528823467423	0	-23.417664	-9.483337	-28.10669	74.59119	-29.391361	5.037987
1448090690668	0.241851806640625	4.824798583984375	8.916213989257813	-6.0672331578885155	0	-20.518494	-10.331726	-29.266357	74.35251	-29.095762	4.4312153
1448090690709	0.860748291015625	4.558197021484375	8.468704223632813	-6.079986317830514	0	-19.836426	-9.312439	-28.935242	74.4418	-28.942636	3.7954779
1448090690749	0.308502197265625	4.617706298828125	7.9164581298828125	-6.222933354512928	0	-21.029663	-9.8220825	-29.101563	74.49042	-29.100487	3.4486425
1448090690789	0.470367431640625	4.615325927734375	8.528213500976563	-6.116897185361459	0	-20.007324	-10.5026245	-28.76892	74.46881	-29.101774	3.0021095
1448090690829	0.434661865234375	4.774810791015625	8.694839477539063	-6.077751366200411	0	-20.178223	-12.031555	-29.930115	74.51828	-29.093246	2.8276849
1448090690869	0.744110107421875	4.608184814453125	7.9164581298828125	-6.163970036394334	0	-20.347595	-11.181641	-28.437805	74.61301	-29.207388	3.0845723
1448090690909	0.099029541015625	4.679595947265625	8.373489379882813	-6.180015536877148	0	-20.518494	-9.992981	-28.271484	74.60898	-29.318188	2.8174384
1448090690950	0.491790771484375	4.634368896484375	8.756729125976563	-6.080625121670126	0	-21.711731	-9.8220825	-30.760193	74.43414	-29.334684	2.578812
1448090690990	0.567962646484375	4.777191162109375	8.659133911132813	-6.064369686440108	0	-20.007324	-10.5026245	-30.427551	74.39288	-29.350529	2.50333
1448090691030	0.022857666015625	4.708160400390625	8.361587524414063	-6.18822942875936	0	-20.178223	-11.691284	-30.262756	74.304016	-29.483356	2.122169
1448090691070	-0.155670166015625	4.834320068359375	8.299697875976563	-6.204052598740676	0	-20.518494	-9.992981	-29.266357	74.11838	-29.625687	1.6480173
1448090691110	0.465606689453125	4.905731201171875	8.832901000976563	-6.037748863167773	0	-20.518494	-9.992981	-30.262756	73.529785	-29.777678	1.2832173
1448090691151	0.172821044921875	4.529632568359375	7.5665435791015625	-6.303887166725937	0	-20.689392	-10.5026245	-30.096436	72.67062	-30.247622	0.44411102
1448090691191	-0.529388427734375	5.077117919921875	8.366348266601563	-6.21298374909214	0	-18.301392	-10.84137	-30.427551	71.968445	-30.632513	-0.6576336
1448090691231	0.263275146484375	5.000946044921875	8.402053833007813	-6.1098074680320416	0	-17.279053	-10.5026245	-31.091309	70.831116	-30.744484	-1.6972106
1448090691271	0.596527099609375	4.896209716796875	7.7046051025390625	-6.173785399866198	0	-18.301392	-10.1623535	-30.096436	69.332214	-31.225765	-2.7150419
1448090691311	-1.817169189453125	4.708160400390625	7.8045806884765625	-6.536191478207337	0	-17.449951	-10.671997	-31.25763	69.1969	-31.257988	-3.769927
1448090691351	0.182342529296875	5.153289794921875	9.218521118164063	-5.991609378467253	0	-14.72168	-13.050842	-31.588745	68.88611	-30.803173	-4.1937084
1448090691392	-1.231597900390625	4.703399658203125	7.3189849853515625	-6.521666706436177	0	-15.232849	-11.181641	-30.760193	68.222534	-30.796778	-5.071399
1448090691432	-1.481536865234375	4.681976318359375	7.8640899658203125	-6.480261259140116	0	-16.767883	-9.992981	-30.924988	68.10544	-30.614815	-5.2789183
1448090691472	-0.929290771484375	5.419891357421875	7.9307403564453125	-6.282207720133467	0	-14.039612	-9.992981	-31.91986	67.77347	-30.089811	-5.3234243
1448090691512	-0.986419677734375	4.341583251953125	9.013809204101563	-6.289644956454474	0	-14.039612	-10.671997	-32.58362	67.030304	-29.406025	-6.0993915
1448090691552	-1.755279541015625	4.408233642578125	7.4689483642578125	-6.625106252431051	0	-16.255188	-10.84137	-34.407043	66.86725	-29.376627	-6.9144545
1448090691593	-0.884063720703125	4.493927001953125	7.8593292236328125	-6.419980371981108	0	-14.039612	-8.972168	-33.247375	66.93088	-29.107765	-7.343873
1448090691633	-2.074249267578125	4.858123779296875	8.214004516601563	-6.4902949735706885	0	-14.550781	-9.483337	-34.075928	67.131226	-28.502508	-7.7061677
1448090691673	-1.962371826171875	4.748626708984375	7.8022003173828125	-6.552609342331278	0	-13.1866455	-10.84137	-32.417297	66.655945	-28.768316	-8.91812
1448090691713	-1.702911376953125	4.567718505859375	8.340164184570313	-6.459217244252375	0	-11.993408	-10.671997	-32.914734	65.86786	-28.690542	-9.72465
1448090691753	-2.295623779296875	4.553436279296875	8.521072387695313	-6.5234787887598005	0	-11.651611	-9.65271	-33.57849	64.98801	-28.677464	-10.52813
1448090691794	-2.176605224609375	4.389190673828125	9.113784790039063	-6.441132686348325	0	-9.436035	-8.123779	-34.407043	62.71472	-29.830555	-13.240183
1448090691834	-3.083526611328125	4.941436767578125	7.3285064697265625	-6.775689802389954	0	-8.92334	-8.972168	-35.23712	61.087402	-31.656454	-15.1832285
1448090691874	-3.193023681640625	5.039031982421875	7.9283599853515625	-6.680201387197593	0	-7.559204	-11.691284	-33.247375	58.486572	-33.667164	-17.51878
1448090691915	-2.885955810546875	5.155670166015625	6.6001129150390625	-6.828374476217791	0	-7.559204	-11.691284	-33.247375	57.02008	-34.85648	-18.56702
1448090691955	-3.223968505859375	5.510345458984375	6.3025665283203125	-6.87591006733136	0	-5.001831	-12.88147	-33.744812	54.004333	-37.168507	-20.357222
1448090691996	-4.235626220703125	5.631744384765625	6.5953521728515625	-6.979681123039774	0	-2.786255	-13.391113	-34.573364	52.245422	-37.772034	-21.571617
1448090692036	-3.766693115234375	5.198516845703125	7.0738067626953125	-6.890158590822702	0	-2.786255	-13.391113	-34.573364	51.410828	-37.946342	-22.057213
1448090692076	-3.999969482421875	5.422271728515625	7.5022735595703125	-6.8191971470750605	0	-3.1265259	-12.371826	-35.23712	50.863464	-37.69359	-21.72425
1448090692116	-3.381072998046875	5.484161376953125	6.7786407470703125	-6.826377000629556	0	-3.4683228	-12.371826	-35.568237	50.806335	-37.80136	-21.222214
1448090692156	-3.259674072265625	5.381805419921875	6.7048492431640625	-6.835576507864619	0	-4.66156	-12.541199	-34.407043	50.679016	-37.94511	-20.85249
1448090692197	-4.095184326171875	5.567474365234375	8.361587524414063	-6.67069860431222	0	-3.4683228	-11.352539	-34.573364	51.059784	-37.91306	-20.304783
1448090692237	-2.726470947265625	5.474639892578125	6.9833526611328125	-6.687061315122809	0	-4.319763	-12.200928	-34.075928	51.71518	-38.29234	-19.26502
1448090692277	-2.455108642578125	5.784088134765625	6.1621246337890625	-6.725836437832893	0	-4.8324585	-12.371826	-33.909607	52.097443	-38.98003	-18.653378
1448090692317	-3.133514404296875	5.581756591796875	6.4953765869140625	-6.816011634073645	0	-6.365967	-12.541199	-34.075928	53.139038	-39.019398	-17.837189
1448090692358	-2.671722412109375	5.900726318359375	7.6808013916015625	-6.503600560422154	0	-4.8324585	-13.731384	-32.914734	54.940277	-38.457775	-16.350063
1448090692398	-2.459869384765625	5.443695068359375	6.9071807861328125	-6.661602945990797	0	-7.559204	-12.710571	-32.914734	56.250183	-38.356033	-15.313669
1448090692438	-2.835968017578125	5.815032958984375	6.6262969970703125	-6.707348164721594	0	-8.071899	-13.220215	-32.74994	56.8255	-38.735058	-15.175487
1448090692478	-2.728851318359375	5.862640380859375	7.3856353759765625	-6.5632337797780895	0	-8.92334	-13.050842	-32.58362	57.879395	-38.609657	-14.543633
1448090692518	-2.728851318359375	5.857879638671875	8.025955200195313	-6.466692288624158	0	-8.753967	-13.220215	-33.41217	59.27533	-38.487	-13.873369
1448090692558	-2.890716552734375	6.112579345703125	6.7191314697265625	-6.653665769367316	0	-8.92334	-14.070129	-33.247375	59.28299	-39.129925	-14.116747
1448090692599	-2.776458740234375	6.181610107421875	6.7262725830078125	-6.623610218333192	0	-8.753967	-13.900757	-32.74994	58.709106	-39.808586	-14.267523
1448090692639	-2.259918212890625	5.822174072265625	8.014053344726563	-6.404202432974423	0	-8.753967	-14.579773	-31.755066	58.171234	-39.965935	-14.022128
1448090692679	-2.257537841796875	6.105438232421875	7.1142730712890625	-6.49568268573284	0	-9.265137	-14.750671	-33.247375	57.080322	-40.681564	-14.334387
1448090692719	-2.226593017578125	6.231597900390625	6.0216827392578125	-6.640105467860348	0	-7.901001	-14.750671	-31.91986	56.085724	-41.62914	-14.611016
1448090692759	-1.824310302734375	5.898345947265625	7.2428131103515625	-6.442547569540151	0	-8.241272	-14.070129	-32.252502	55.723297	-41.90876	-14.513812
1448090692800	-2.657440185546875	6.245880126953125	6.3977813720703125	-6.64650169243478	0	-7.559204	-15.4296875	-31.25763	55.669373	-42.091835	-14.622445
1448090692840	-2.195648193359375	6.343475341796875	6.7691192626953125	-6.502519732946427	0	-7.218933	-14.750671	-29.930115	55.660736	-42.191097	-14.523975
1448090692880	-2.138519287109375	6.226837158203125	7.4998931884765625	-6.4024538428013535	0	-9.605408	-15.7699585	-31.588745	55.840515	-42.2085	-14.315493
1448090692920	-2.805023193359375	6.305389404296875	6.4477691650390625	-6.652533517508458	0	-9.094238	-14.241028	-31.091309	55.82077	-42.690773	-14.597836
1448090692960	-2.562225341796875	6.462493896484375	5.5694122314453125	-6.729315355035739	0	-8.071899	-16.619873	-31.422424	55.83374	-43.09899	-14.678549
1448090693000	-2.248016357421875	6.452972412109375	7.4522857666015625	-6.392329679523154	0	-9.265137	-16.11023	-33.57849	56.659424	-42.67949	-13.896989
1448090693041	-2.619354248046875	6.519622802734375	7.0523834228515625	-6.4971208903002475	0	-9.605408	-16.11023	-33.247375	57.377228	-42.61356	-13.42967
1448090693081	-1.817169189453125	6.336334228515625	6.0121612548828125	-6.561399498652616	0	-9.436035	-14.920044	-30.760193	58.14215	-43.025337	-13.046913
1448090693121	-2.533660888671875	6.264923095703125	6.2954254150390625	-6.601996206450349	0	-9.265137	-17.129517	-31.25763	60.022766	-42.59038	-11.870367
1448090693161	-1.476776123046875	6.136383056640625	7.5022735595703125	-6.372864045891259	0	-10.458374	-16.619873	-31.091309	62.40561	-41.612976	-10.022399
1448090693201	-1.286346435546875	6.098297119140625	6.4430084228515625	-6.451758855259266	0	-11.651611	-16.11023	-30.262756	63.980347	-41.13645	-8.449181
1448090693242	-1.298248291015625	5.857879638671875	7.9783477783203125	-6.265699108139771	0	-14.550781	-16.279602	-30.760193	65.340485	-40.66923	-7.247929
1448090693282	-0.774566650390625	6.362518310546875	8.061660766601563	-6.112061811435993	0	-14.550781	-15.600586	-30.427551	66.88321	-40.149033	-5.941052
1448090693322	-1.217315673828125	6.383941650390625	7.1809234619140625	-6.292691999144462	0	-15.403748	-15.4296875	-29.930115	67.88321	-40.561424	-5.268651
1448090693362	-1.819549560546875	6.231597900390625	6.3001861572265625	-6.5336449900632125	0	-15.914917	-16.279602	-28.76892	68.44412	-41.32252	-4.7484813
1448090693402	-1.257781982421875	6.386322021484375	8.487747192382813	-6.116574629972672	0	-18.132019	-17.129517	-27.609253	69.27057	-40.916115	-3.2591019
1448090693444	-0.660308837890625	6.091156005859375	7.2332916259765625	-6.247929069168475	0	-16.937256	-14.920044	-28.76892	69.35489	-41.058495	-2.2898636
1448090693484	-0.238983154296875	6.160186767578125	5.8645782470703125	-6.373557346558076	0	-18.98346	-16.279602	-27.774048	68.94351	-41.830368	-1.8688014
1448090693524	-0.605560302734375	6.724334716796875	6.8048248291015625	-6.211659215624816	0	-18.814087	-15.4296875	-27.940369	68.93228	-42.436058	-1.4205534
1448090693564	0.213287353515625	6.203033447265625	5.9121856689453125	-6.295402701395639	0	-18.301392	-15.939331	-27.442932	68.890594	-42.679092	-0.51853114
1448090693604	0.187103271484375	6.400604248046875	6.5167999267578125	-6.186585159382759	0	-20.689392	-15.260315	-27.111816	69.20416	-42.543056	0.883631
1448090693644	0.446563720703125	6.512481689453125	7.4308624267578125	-6.01319680011285	0	-20.178223	-14.750671	-27.609253	69.58716	-42.225334	2.0884018
1448090693685	0.708404541015625	6.369659423828125	8.247329711914063	-5.89183389245822	0	-22.2229	-13.050842	-26.945496	69.57446	-41.996857	2.4649286
1448090693725	1.089263916015625	5.993560791015625	8.011672973632813	-5.92143620928743	0	-20.86029	-14.4104	-27.276611	69.160645	-42.355026	2.2212985
1448090693765	-0.660308837890625	6.867156982421875	5.0385894775390625	-6.4531782218649685	0	-19.836426	-15.4296875	-26.61438	68.388855	-44.260914	0.9565527
1448090693805	0.786956787109375	6.548187255859375	7.0880889892578125	-6.008806820767281	0	-19.665527	-14.579773	-27.774048	68.36731	-44.135277	2.0390866
1448090693846	0.451324462890625	6.700531005859375	5.5099029541015625	-6.248263531528874	0	-21.200562	-15.0894165	-26.61438	68.815125	-43.82185	3.3828025
1448090693886	0.903594970703125	6.422027587890625	5.8836212158203125	-6.1918494541408435	0	-21.200562	-15.0894165	-26.61438	69.08087	-43.64898	4.1975226
1448090693926	1.796234130859375	6.593414306640625	6.2073516845703125	-5.985997937226344	0	-22.735596	-12.88147	-26.779175	70.1532	-42.608044	7.4004955
1448090693967	2.336578369140625	6.510101318359375	6.6691436767578125	-5.867587006335494	0	-25.292969	-13.731384	-24.624634	70.99585	-41.53884	9.918559
1448090694007	3.048309326171875	5.872161865234375	8.104507446289063	-5.6804663815024945	0	-25.975037	-10.671997	-24.624634	71.54663	-40.081467	11.832354
1448090694047	1.636749267578125	5.834075927734375	8.968582153320313	-5.752046097456242	0	-26.486206	-9.8220825	-25.784302	71.770996	-39.24176	12.099275
1448090694087	1.829559326171875	6.153045654296875	7.6879425048828125	-5.847995765506285	0	-25.292969	-10.671997	-24.291992	71.55237	-39.122738	11.654517
1448090694128	1.517730712890625	6.364898681640625	7.8260040283203125	-5.843188158814231	0	-28.87268	-11.862183	-22.468567	70.76663	-39.412094	11.169063
1448090694168	1.308258056640625	6.081634521484375	6.4192047119140625	-6.090540623450822	0	-26.145935	-9.483337	-25.12207	68.69946	-39.87984	9.6947775
1448090694208	2.134246826171875	6.219696044921875	8.771011352539063	-5.6683691915949375	0	-25.463867	-9.8220825	-27.111816	66.44501	-40.078407	8.428255
1448090694248	0.298980712890625	6.424407958984375	7.6474761962890625	-6.015707642234606	0	-24.269104	-8.633423	-26.281738	65.13797	-40.186165	7.8369694
1448090694288	2.303253173828125	6.131622314453125	7.3070831298828125	-5.838986281634254	0	-24.6109	-10.671997	-27.276611	62.960907	-40.269978	7.098751
1448090694329	-0.029510498046875	5.876922607421875	7.5022735595703125	-6.152877833640698	0	-21.540833	-9.65271	-27.276611	60.480927	-40.870983	5.328743
1448090694369	0.422760009765625	7.124237060546875	6.3144683837890625	-6.083501095310311	0	-22.393799	-10.5026245	-28.76892	59.141174	-41.355495	4.6155214
1448090694410	1.929534912109375	6.038787841796875	7.6308135986328125	-5.857025801109812	0	-20.689392	-10.84137	-27.774048	56.999084	-41.21858	3.905024
1448090694450	-0.329437255859375	6.312530517578125	6.0740509033203125	-6.334260131116329	0	-19.665527	-8.802795	-29.432678	54.63864	-41.900776	1.9906032
1448090694490	0.365631103515625	6.583892822265625	7.0000152587890625	-6.07169181042287	0	-17.96112	-9.8220825	-30.760193	52.920258	-42.56959	0.80445534
1448090694530	0.815521240234375	6.088775634765625	7.7902984619140625	-5.97324698509072	0	-17.790222	-10.671997	-30.262756	50.935608	-43.20843	-0.38369048
1448090694571	-0.369903564453125	6.733856201171875	7.4594268798828125	-6.088619430308764	0	-16.085815	-11.012268	-31.588745	49.27368	-44.75653	-2.1333468
1448090694611	-0.841217041015625	6.805267333984375	5.6741485595703125	-6.3951195512008185	0	-16.255188	-9.8220825	-31.091309	48.20584	-46.881138	-3.5562346
1448090694651	-1.341094970703125	7.593170166015625	4.2935333251953125	-6.559199728935804	0	-14.379883	-12.031555	-30.924988	46.144592	-48.928062	-5.2273154
1448090694692	-1.307769775390625	7.493194580078125	5.8550567626953125	-6.336660293408139	0	-12.675476	-13.050842	-29.598999	43.316162	-50.617435	-6.981597
1448090694732	0.382293701171875	7.307525634765625	6.4001617431640625	-6.052937644499499	0	-10.287476	-16.11023	-31.91986	39.006958	-52.72613	-9.054408
1448090694772	-1.357757568359375	7.600311279296875	6.5215606689453125	-6.233909923897286	0	-8.583069	-15.4296875	-32.252502	35.675903	-54.89706	-11.658686
1448090694812	-2.100433349609375	7.743133544921875	1.7370147705078125	-7.090036920331075	0	-6.536865	-16.448975	-32.252502	33.3414	-56.731052	-13.521933
1448090694852	-1.993316650390625	7.650299072265625	2.9414825439453125	-6.874286073112172	0	-3.8085938	-18.489075	-29.930115	28.966248	-59.977005	-16.305029
1448090694893	-2.209930419921875	7.954986572265625	4.6553497314453125	-6.581633971684498	0	-1.0803223	-19.16809	-30.593872	27.287384	-61.052402	-17.329363
1448090694933	-3.019256591796875	8.171600341796875	2.8486480712890625	-6.977997549797946	0	-1.7623901	-18.148804	-29.598999	26.712097	-61.97172	-18.039907
1448090694973	-2.824066162109375	8.021636962890625	-0.3791351318359375	-7.669752711818691	0	-0.3982544	-20.187378	-28.271484	25.245422	-63.80167	-19.241493
1448090695014	-3.619110107421875	8.342987060546875	4.1435699462890625	-6.828774132120204	0	0.6240845	-22.227478	-28.604126	25.416473	-63.84319	-19.49264
1448090695054	-3.216827392578125	8.062103271484375	5.8193511962890625	-6.540925938616146	0	0.7949829	-19.677734	-29.432678	26.03595	-63.482372	-19.869595
1448090695094	-4.011871337890625	8.676239013671875	0.3111724853515625	-7.576008114169511	0	2.330017	-20.86792	-28.604126	23.67865	-66.56087	-21.360716
1448090695134	-3.723846435546875	8.054962158203125	3.4342193603515625	-7.019964917502147	0	2.330017	-21.546936	-28.935242	24.289734	-66.440926	-21.068222
1448090695175	-3.647674560546875	8.226348876953125	3.9579010009765625	-6.884858170648403	0	3.6941528	-21.546936	-28.604126	24.549042	-66.24788	-21.01307
1448090695215	-4.483184814453125	8.114471435546875	3.5532379150390625	-7.126203660625389	0	2.670288	-20.86792	-25.619507	24.28949	-66.57665	-21.337173
1448090695255	-4.364166259765625	7.402740478515625	2.9605255126953125	-7.357294030659846	0	3.012085	-20.86792	-27.609253	24.159485	-66.802345	-21.54207
1448090695295	-3.833343505859375	7.621734619140625	2.8105621337890625	-7.237757216357856	0	1.4770508	-21.716309	-29.76532	23.397064	-67.187195	-21.94449
1448090695336	-4.802154541015625	7.774078369140625	2.9176788330078125	-7.379749641792305	0	4.3762207	-22.227478	-26.945496	20.19986	-69.16964	-23.53296
1448090695376	-4.354644775390625	7.997833251953125	2.3273468017578125	-7.363132120464786	0	4.5455933	-22.39685	-27.111816	19.805908	-69.31661	-23.839266
1448090695416	-3.711944580078125	8.047821044921875	2.2630767822265625	-7.237757216357856	0	4.7164917	-21.546936	-25.950623	19.367981	-69.214935	-24.00256
1448090695457	-5.271087646484375	8.031158447265625	3.2675933837890625	-7.169626632664056	0	5.7403564	-21.206665	-27.276611	18.676971	-68.73292	-24.334726
1448090695497	-4.559356689453125	8.888092041015625	3.2414093017578125	-7.055210414114294	0	6.4224243	-21.206665	-28.271484	19.929688	-68.296974	-24.037064
1448090695537	-3.459625244140625	8.871429443359375	3.1319122314453125	-6.883636361727354	0	5.569458	-21.716309	-28.10669	19.752289	-68.7071	-23.377792
1448090695577	-4.130889892578125	7.993072509765625	3.3128204345703125	-7.127980383152954	0	4.7164917	-21.206665	-27.940369	18.825989	-69.13514	-23.147795
1448090695617	-4.297515869140625	8.619110107421875	2.9105377197265625	-7.11733765541407	0	5.7403564	-22.566223	-27.940369	17.690247	-69.85056	-23.061737
1448090695658	-3.554840087890625	8.195404052734375	2.7843780517578125	-7.081725320936473	0	5.909729	-22.39685	-27.111816	16.550842	-70.43821	-22.683098
1448090695698	-3.400115966796875	8.688140869140625	3.4127960205078125	-6.856884603075821	0	4.7164917	-22.906494	-25.950623	15.737213	-70.64807	-22.496641
1448090695739	-3.407257080078125	8.212066650390625	3.5841827392578125	-6.91022428031681	0	6.0806274	-21.546936	-27.276611	14.999847	-70.71868	-22.410717
1448090695779	-3.985687255859375	8.466766357421875	2.8772125244140625	-7.093982882532707	0	7.2738647	-20.697021	-26.44806	13.15564	-71.49166	-22.544899
1448090695819	-3.764312744140625	8.550079345703125	2.8724517822265625	-7.039251380149392	0	6.591797	-21.037292	-26.779175	10.855316	-72.59593	-22.729958
1448090695859	-3.123992919921875	8.526275634765625	2.7224884033203125	-6.956201586064842	0	6.251526	-22.737122	-26.116943	9.796051	-73.295494	-22.674429
1448090695900	-3.145416259765625	8.614349365234375	2.5201568603515625	-6.980102173038105	0	8.2977295	-22.737122	-26.44806	9.455231	-73.55374	-22.50413
1448090695940	-3.147796630859375	8.702423095703125	2.5034942626953125	-6.967917078724877	0	8.6380005	-21.377563	-26.44806	9.61853	-73.40318	-22.33542
1448090695980	-3.576263427734375	8.621490478515625	2.7010650634765625	-7.0233838541971245	0	7.9559326	-23.416138	-26.44806	10.484894	-72.99615	-22.18209
1448090696020	-3.590545654296875	8.709564208984375	2.3035430908203125	-7.08216214137525	0	7.2738647	-21.377563	-26.779175	11.266083	-72.928345	-22.042454
1448090696061	-4.097564697265625	8.626251220703125	3.6674957275390625	-6.943702472847384	0	5.7403564	-23.58551	-26.61438	12.510559	-72.322685	-21.843168
1448090696101	-3.283477783203125	8.354888916015625	3.5127716064453125	-6.876722402000757	0	5.7403564	-21.206665	-25.950623	14.199188	-71.64511	-21.498064
1448090696141	-3.683380126953125	8.642913818359375	3.2866363525390625	-6.934156652232665	0	5.7403564	-22.227478	-27.276611	15.087372	-72.40542	-21.423624
1448090696181	-3.402496337890625	8.738128662109375	2.6605987548828125	-7.019537845310664	0	5.7403564	-23.246765	-25.286865	15.651245	-73.33132	-21.405527
1448090696222	-2.928802490234375	8.583404541015625	3.4818267822265625	-6.783947384662303	0	5.0582886	-22.566223	-25.286865	16.389832	-73.82464	-21.133833
1448090696262	-3.457244873046875	8.635772705078125	2.2487945556640625	-7.149393715336008	0	5.227661	-24.09668	-25.12207	17.27945	-74.15166	-20.810526
1448090696303	-3.219207763671875	9.118988037109375	2.4844512939453125	-6.9110462416693395	0	5.227661	-24.09668	-25.12207	17.722107	-74.57224	-20.550848
1448090696343	-3.195404052734375	8.823822021484375	2.6344146728515625	-6.932085668569112	0	3.6941528	-24.606323	-25.619507	18.4516	-75.0164	-20.249943
1448090696383	-2.738372802734375	8.709564208984375	1.9393463134765625	-6.994032183977324	0	4.034424	-24.606323	-23.62976	19.990295	-75.78263	-19.355305
1448090696424	-3.412017822265625	9.238006591796875	2.4225616455078125	-6.934571028168577	0	4.3762207	-25.964355	-22.634888	20.698486	-76.0104	-18.379532
1448090696464	-2.757415771484375	9.416534423828125	2.0131378173828125	-6.861730483412455	0	2.8411865	-26.475525	-24.127197	21.414276	-77.29096	-17.147738
1448090696504	-2.690765380859375	9.457000732421875	1.6489410400390625	-6.90570765597867	0	2.8411865	-26.475525	-24.127197	21.700378	-78.2918	-16.562992
1448090696544	-2.805023193359375	9.276092529296875	1.7822418212890625	-6.93374233606561	0	-0.0579834	-29.023743	-20.645142	22.988617	-79.62491	-15.404386
1448090696585	-2.414642333984375	9.414154052734375	1.6989288330078125	-6.906528337193361	0	-0.3982544	-26.985168	-21.97113	23.493683	-79.80358	-15.303841
1448090696625	-2.733612060546875	9.264190673828125	1.4918365478515625	-6.974213168874559	0	0.28381348	-28.004456	-21.307373	25.683258	-81.93942	-14.569253
1448090696665	-2.833587646484375	8.271575927734375	0.9419708251953125	-7.280741906906622	0	-1.7623901	-28.683472	-19.317627	27.124817	-83.4868	-14.209776
1448090696706	-2.981170654296875	7.805023193359375	0.7348785400390625	-7.448903862008176	0	-1.7623901	-29.364014	-17.658997	28.56836	-83.74399	-13.990015
1448090696746	-2.005218505859375	8.738128662109375	0.4587554931640625	-7.124871891221248	0	-2.6153564	-30.552673	-17.16156	30.179413	-83.57411	-13.690137
1448090696786	-2.148040771484375	9.126129150390625	0.0683746337890625	-7.152082527332827	0	-2.444458	-30.723572	-20.3125	31.961731	-84.0365	-13.7287245
1448090696826	-2.747894287109375	9.099945068359375	-0.1601409912109375	-7.318245163960922	0	-2.444458	-30.723572	-18.322754	33.4617	-84.128296	-13.780123
1448090696867	-2.295623779296875	9.564117431640625	1.3561553955078125	-6.869824719551806	0	-4.1503906	-30.723572	-17.32788	35.443176	-83.876854	-13.795627
1448090696907	-2.571746826171875	9.161834716796875	0.6896514892578125	-7.108500783906786	0	-4.1503906	-30.3833	-17.658997	36.485962	-83.77761	-13.834899
1448090696947	-3.074005126953125	8.959503173828125	0.2183380126953125	-7.336005727447278	0	-6.025696	-31.233215	-15.504456	38.594513	-83.81021	-14.234361
1448090696987	-2.566986083984375	9.078521728515625	0.2159576416015625	-7.21285882437495	0	-5.001831	-30.552673	-17.16156	39.716858	-84.08774	-14.4505
1448090697028	-2.776458740234375	8.990447998046875	0.1493072509765625	-7.284042466703868	0	-5.1727295	-31.402588	-16.333008	40.467743	-84.26319	-14.808514
1448090697068	-2.745513916015625	8.999969482421875	0.3254547119140625	-7.241466420959657	0	-4.8324585	-31.742859	-14.012146	41.51718	-83.84662	-15.355707
1448090697108	-2.795501708984375	9.292755126953125	0.4516143798828125	-7.170529477830389	0	-3.8085938	-33.102417	-16.664124	42.666656	-83.22905	-15.878285
1448090697149	-2.497955322265625	9.380828857421875	0.6134796142578125	-7.068653114208739	0	-3.8085938	-31.062317	-15.338135	43.098938	-82.892654	-16.246845
1448090697189	-3.452484130859375	8.254913330078125	0.9657745361328125	-7.40489149659007	0	-2.2735596	-32.592773	-16.830444	44.01941	-81.670296	-18.11837
1448090697229	-3.292999267578125	9.102325439453125	1.3180694580078125	-7.136881732114263	0	-3.2974243	-30.892944	-16.499329	44.689606	-80.76645	-19.262056
1448090697270	-3.009735107421875	8.545318603515625	1.4775543212890625	-7.1583670386873415	0	-2.9556274	-31.233215	-16.499329	45.38977	-79.90683	-20.212433
1448090697310	-3.680999755859375	8.645294189453125	1.3133087158203125	-7.301085452164752	0	-2.2735596	-31.912231	-16.499329	46.09668	-79.16848	-21.202465
1448090697350	-4.240386962890625	8.971405029296875	1.7203521728515625	-7.266645228895244	0	-1.9332886	-31.912231	-18.489075	46.48526	-78.64913	-21.990944
1448090697390	-3.602447509765625	8.521514892578125	1.3037872314453125	-7.312034984960741	0	-2.6153564	-30.892944	-16.830444	47.160828	-78.6555	-22.21417
1448090697431	-3.602447509765625	8.521514892578125	1.3037872314453125	-7.312034984960741	0	-2.6153564	-30.892944	-16.830444	47.160828	-78.6555	-22.21417
1448090697471	-3.802398681640625	8.400115966796875	1.5537261962890625	-7.32638962959887	0	-1.4221191	-32.081604	-16.333008	48.79367	-78.50843	-22.181744
1448090697511	-3.828582763671875	8.354888916015625	1.6703643798828125	-7.3172887434017895	0	-2.2735596	-31.912231	-17.825317	50.263885	-77.29553	-22.127615
1448090697551	-3.319183349609375	8.319183349609375	2.0250396728515625	-7.156120859759209	0	-2.444458	-30.723572	-17.32788	51.218964	-76.00534	-22.12222
1448090697592	-3.185882568359375	8.228729248046875	2.1012115478515625	-7.133762887952379	0	-3.1265259	-31.062317	-17.991638	51.67752	-75.34668	-22.209274
1448090697632	-3.564361572265625	8.500091552734375	2.3273468017578125	-7.111590392924997	0	-3.1265259	-31.062317	-19.317627	53.423218	-72.88581	-22.837612
1448090697674	-3.861907958984375	8.797637939453125	2.6129913330078125	-7.0591063578824125	0	-1.5914917	-31.57196	-20.147705	54.1485	-72.0021	-23.158836
1448090697715	-4.261810302734375	8.412017822265625	2.6058502197265625	-7.207358237628171	0	-2.2735596	-28.85437	-20.147705	56.026337	-70.481255	-24.153906
1448090697755	-4.311798095703125	8.462005615234375	3.2366485595703125	-7.088722872699805	0	-1.5914917	-28.85437	-20.809937	57.323547	-70.33502	-24.800282
1448090697795	-4.373687744140625	8.193023681640625	2.9081573486328125	-7.21285882437495	0	-1.0803223	-31.402588	-18.986511	58.3414	-71.081154	-25.586542
1448090697835	-4.345123291015625	8.243011474609375	2.2368927001953125	-7.329751017161308	0	-0.74005127	-32.421875	-18.986511	59.158234	-72.20249	-26.179544
1448090697875	-5.002105712890625	8.366790771484375	1.7417755126953125	-7.546852100058711	0	0.28381348	-31.402588	-17.991638	60.343597	-72.82298	-26.573835
1448090697916	-4.821197509765625	8.235870361328125	0.6729888916015625	-7.784803337829429	0	-1.7623901	-30.04303	-16.996765	62.88565	-71.69311	-26.398779
1448090697956	-3.450103759765625	8.407257080078125	5.6384429931640625	-6.551512241816426	0	-1.7623901	-31.062317	-18.322754	68.57791	-67.52622	-24.816223
1448090697996	-4.366546630859375	6.879058837890625	5.5479888916015625	-6.967497835823301	0	-3.4683228	-29.364014	-19.650269	72.8992	-64.76378	-23.788385
1448090698037	-4.311798095703125	7.347991943359375	1.6513214111328125	-7.641532966675381	0	-4.66156	-28.85437	-19.815063	75.532135	-63.495255	-23.412691
1448090698077	-4.104705810546875	7.676483154296875	2.2987823486328125	-7.383676209951536	0	-5.1727295	-30.04303	-18.322754	77.130554	-62.110413	-22.892818
1448090698117	-3.033538818359375	7.343231201171875	5.4313507080078125	-6.685535583679774	0	-5.1727295	-30.3833	-19.981384	83.06027	-55.899677	-20.116297
1448090698157	-2.705047607421875	7.352752685546875	6.6596221923828125	-6.443963048066619	0	-7.559204	-27.664185	-19.317627	85.63043	-52.526596	-18.551132
1448090698197	-3.214447021484375	7.136138916015625	5.9359893798828125	-6.666905544417727	0	-9.776306	-26.81427	-22.137451	88.23065	-50.142216	-17.038647
1448090698238	-3.473907470703125	7.155181884765625	6.7834014892578125	-6.571684869224493	0	-9.094238	-26.81427	-21.142578	90.15524	-48.532387	-15.659949
1448090698278	-2.388458251953125	6.810028076171875	6.7572174072265625	-6.463130659412993	0	-11.651611	-26.304626	-22.302246	91.005005	-47.80509	-14.129977
1448090698318	-1.095916748046875	6.779083251953125	6.6120147705078125	-6.300151472727132	0	-13.357544	-24.945068	-22.302246	91.65735	-47.870773	-12.415185
1448090698358	-1.103057861328125	6.752899169921875	5.6289215087890625	-6.448213063183038	0	-12.333679	-24.606323	-22.634888	92.78827	-48.16706	-10.987504
1448090698398	-0.688873291015625	6.674346923828125	5.1480865478515625	-6.469901005385102	0	-13.528442	-26.475525	-22.137451	93.475555	-48.09077	-10.162359
1448090698438	-1.357757568359375	6.707672119140625	6.7453155517578125	-6.328780265951229	0	-14.21051	-26.81427	-21.142578	94.08612	-47.214714	-9.802914
1448090698479	-1.276824951171875	6.745758056640625	7.8450469970703125	-6.157767295895979	0	-14.039612	-25.28534	-22.634888	95.36249	-46.346138	-9.231877
1448090698519	-1.817169189453125	6.948089599609375	6.8619537353515625	-6.343527066100425	0	-15.061951	-25.28534	-22.302246	96.98944	-46.797043	-8.128872
1448090698559	-0.850738525390625	7.093292236328125	5.6432037353515625	-6.359027310949186	0	-16.085815	-26.644897	-20.645142	97.34302	-47.60593	-7.9230466
1448090698599	-1.231597900390625	7.317047119140625	5.8407745361328125	-6.353163486194829	0	-14.21051	-25.794983	-20.147705	97.82034	-47.743088	-7.7656026
1448090698640	-0.926910400390625	7.000457763671875	6.5287017822265625	-6.25663533179444	0	-15.403748	-26.985168	-19.317627	98.82495	-47.34584	-7.281579
1448090698680	-1.053070068359375	6.862396240234375	7.0714263916015625	-6.217623465738935	0	-14.891052	-24.775696	-20.147705	99.623505	-46.779594	-6.9707384
1448090698720	-0.803131103515625	6.764801025390625	6.0526275634765625	-6.340435334934076	0	-16.596985	-27.494812	-20.147705	100.27261	-46.629597	-6.858767
1448090698761	-1.095916748046875	6.786224365234375	6.5977325439453125	-6.301169903544956	0	-17.449951	-25.62561	-18.986511	101.75113	-46.737095	-6.4453845
1448090698801	-1.241119384765625	6.712432861328125	5.7598419189453125	-6.455308398914261	0	-15.403748	-25.62561	-18.65387	103.06592	-46.909607	-6.4089823
1448090698841	-1.062591552734375	6.783843994140625	7.1118927001953125	-6.224262056477423	0	-15.403748	-27.323914	-18.986511	103.88583	-46.372833	-6.547293
1448090698882	-1.667205810546875	6.669586181640625	7.4618072509765625	-6.276134361862402	0	-14.891052	-26.475525	-18.489075	104.78671	-45.530704	-7.162444
1448090698922	-0.707916259765625	6.536285400390625	5.7169952392578125	-6.408752978740388	0	-15.914917	-26.135254	-18.82019	104.10144	-46.19713	-8.223226
1448090698962	-1.183990478515625	6.986175537109375	6.0145416259765625	-6.369053391651203	0	-14.550781	-27.494812	-19.483948	103.96243	-47.17602	-9.274924
1448090699002	-1.633880615234375	6.955230712890625	6.4477691650390625	-6.375985002263397	0	-14.550781	-27.494812	-19.483948	104.230316	-47.5072	-9.626228
1448090699042	-1.276824951171875	6.788604736328125	6.1954498291015625	-6.385017089378395	0	-12.8463745	-29.873657	-18.82019	105.10269	-47.978977	-10.719405
1448090699083	-2.107574462890625	6.852874755859375	7.5308380126953125	-6.302867946080342	0	-11.993408	-28.683472	-17.991638	106.3963	-48.125607	-11.279285
1448090699123	-2.376556396484375	7.298004150390625	8.430618286132813	-6.152552102114825	0	-11.993408	-28.683472	-17.991638	107.22446	-48.389862	-11.628803
1448090699163	-4.814056396484375	6.929046630859375	4.3435211181640625	-7.2652398617002225	0	-10.969543	-28.683472	-16.333008	108.36908	-50.032627	-12.588159
1448090699203	-1.407745361328125	7.228973388671875	4.1626129150390625	-6.64687834416023	0	-11.993408	-31.402588	-15.007019	108.33905	-50.203976	-11.979106
1448090699244	-0.836456298828125	6.931427001953125	6.0764312744140625	-6.317846357574232	0	-11.993408	-31.402588	-15.007019	108.50131	-48.928043	-11.426735
1448090699284	-2.017120361328125	6.438690185546875	7.3784942626953125	-6.371477864338145	0	-13.1866455	-29.193115	-17.494202	109.07333	-45.29034	-10.545899
1448090699324	-1.319671630859375	6.238739013671875	7.1690216064453125	-6.329807082776166	0	-11.993408	-27.323914	-18.986511	108.667786	-43.91286	-10.035296
1448090699365	-1.038787841796875	6.141143798828125	7.8688507080078125	-6.1842844361727245	0	-11.993408	-27.323914	-18.986511	108.45758	-43.19977	-9.702411
1448090699406	-1.207794189453125	6.003082275390625	7.0071563720703125	-6.371131406342387	0	-13.015747	-26.304626	-20.645142	107.47513	-41.812885	-9.548418
1448090699446	-3.016876220703125	6.181610107421875	6.7619781494140625	-6.655931493772661	0	-13.868713	-27.833557	-21.80481	106.713165	-41.100174	-9.670378
1448090699486	-1.579132080078125	5.817413330078125	6.9833526611328125	-6.456729269489221	0	-12.164307	-26.135254	-21.142578	105.05136	-40.35613	-9.791752
1448090699527	-0.512725830078125	5.448455810546875	7.1047515869140625	-6.336660293408139	0	-12.504578	-26.475525	-22.137451	103.49817	-39.692543	-10.07449
1448090699567	-1.645782470703125	5.308013916015625	7.6712799072265625	-6.440071914191259	0	-13.357544	-24.945068	-22.634888	103.3371	-39.449303	-10.189646
1448090699608	-2.207550048828125	5.462738037109375	7.7165069580078125	-6.494245105625144	0	-14.72168	-24.945068	-23.62976	103.19443	-39.065895	-10.683449
1448090699648	-2.114715576171875	5.646026611328125	7.2808990478515625	-6.518407474765533	0	-12.675476	-24.945068	-26.281738	102.79358	-38.74238	-11.588238
1448090699688	-1.895721435546875	5.574615478515625	6.9928741455078125	-6.53983276181535	0	-11.993408	-24.266052	-23.960876	102.91138	-38.78353	-11.606599
1448090699729	-2.462249755859375	6.072113037109375	7.0285797119140625	-6.5449373882076545	0	-13.015747	-24.945068	-24.624634	103.29523	-38.277176	-11.469198
1448090699769	-2.726470947265625	5.760284423828125	8.721023559570313	-6.3780672181627285	0	-12.333679	-23.925781	-24.95575	103.25406	-37.65354	-11.202267
1448090699809	-0.005706787109375	5.672210693359375	7.2547149658203125	-6.211990303235925	0	-12.8463745	-24.435425	-23.794556	102.58011	-37.930458	-10.906441
1448090699849	-1.569610595703125	5.572235107421875	6.1645050048828125	-6.618006341880238	0	-12.675476	-24.606323	-24.624634	102.533295	-38.049877	-10.661404
1448090699890	-1.598175048828125	5.619842529296875	7.5475006103515625	-6.40525201856377	0	-13.357544	-23.246765	-25.950623	102.23712	-36.90999	-10.767438
1448090699930	-1.119720458984375	5.412750244140625	8.252090454101563	-6.264690876482315	0	-11.82251	-23.075867	-25.12207	101.444885	-35.28744	-10.479867
1448090699970	-1.293487548828125	5.155670166015625	8.425857543945313	-6.301169903544956	0	-13.357544	-20.187378	-26.61438	100.67511	-33.86278	-10.146015
1448090700011	-1.093536376953125	5.053314208984375	8.292556762695313	-6.306266502356301	0	-13.015747	-19.848633	-26.281738	99.60104	-32.998127	-10.031315
1448090700051	-0.853118896484375	5.227081298828125	8.071182250976563	-6.27883234136369	0	-13.868713	-21.037292	-28.10669	99.01816	-32.759403	-10.040846
1448090700092	-1.410125732421875	5.455596923828125	7.9402618408203125	-6.344558256718073	0	-12.504578	-19.677734	-28.437805	97.56293	-32.69411	-10.231001
1448090700132	-0.955474853515625	5.274688720703125	7.8093414306640625	-6.323992457101782	0	-11.482239	-19.337463	-27.111816	97.31879	-32.72001	-10.203172
1448090700172	-0.884063720703125	5.243743896484375	8.406814575195313	-6.233576805144338	0	-12.333679	-18.489075	-27.940369	97.24777	-32.50048	-10.152768
1448090700213	-1.450592041015625	5.155670166015625	8.970962524414063	-6.246257228662658	0	-12.504578	-19.677734	-28.10669	97.32556	-32.03334	-10.180874
1448090700253	-1.226837158203125	5.103302001953125	7.9735870361328125	-6.364209568935735	0	-11.82251	-18.658447	-27.774048	97.964294	-32.489227	-9.608222
1448090700293	-1.274444580078125	5.203277587890625	7.1333160400390625	-6.4806190848636	0	-11.482239	-19.677734	-28.10669	98.16553	-33.01459	-9.487049
1448090700334	-0.453216552734375	5.362762451171875	8.021194458007813	-6.210666135696415	0	-12.675476	-21.206665	-28.271484	98.35803	-33.66527	-9.555287
1448090700374	-1.748138427734375	5.415130615234375	8.006912231445313	-6.389890410505259	0	-13.868713	-20.697021	-27.442932	99.20361	-33.817318	-9.8048525
1448090700414	-0.784088134765625	4.998565673828125	8.506790161132813	-6.239911381660109	0	-12.164307	-22.39685	-28.10669	100.7619	-33.83213	-10.517533
1448090700454	-2.414642333984375	5.377044677734375	9.273269653320313	-6.308647456429645	0	-12.675476	-22.227478	-28.271484	102.28714	-33.805164	-10.913774
1448090700495	-2.624114990234375	5.496063232421875	8.718643188476563	-6.402104232538383	0	-11.482239	-22.05658	-27.442932	104.6463	-34.4666	-10.450777
1448090700535	-2.476531982421875	5.841217041015625	6.9095611572265625	-6.6012534952020685	0	-13.697815	-24.606323	-27.609253	105.90744	-35.00476	-9.915834
1448090700576	-1.491058349609375	5.584136962890625	8.559158325195313	-6.249601695463355	0	-13.357544	-24.945068	-24.95575	109.55643	-35.862045	-7.626872
1448090700616	-0.015228271484375	5.407989501953125	7.3570709228515625	-6.2359092890422	0	-13.528442	-26.135254	-23.132324	113.08237	-36.525356	-5.293749
1448090700656	-1.436309814453125	5.750762939453125	9.785049438476563	-6.051669566093592	0	-15.403748	-27.323914	-21.640015	118.4397	-36.85293	-2.089883
1448090700696	0.296600341796875	5.648406982421875	5.9336090087890625	-6.360063139177558	0	-16.937256	-28.173828	-18.156433	121.78027	-38.19509	-0.461929
1448090700737	0.341827392578125	5.455596923828125	4.7505645751953125	-6.558833245505219	0	-16.937256	-28.173828	-18.156433	122.92258	-38.805035	-0.045933027
1448090700777	1.241607666015625	5.265167236328125	7.7498321533203125	-6.030807757878611	0	-16.255188	-28.85437	-15.504456	127.987	-37.401436	2.9299526
1448090700818	0.429901123046875	5.865020751953125	8.378250122070313	-5.976042338631316	0	-17.108154	-27.323914	-15.007019	131.49994	-35.9691	4.9498954
1448090700858	-0.298492431640625	5.607940673828125	8.644851684570313	-6.0710545342403055	0	-17.96112	-26.81427	-15.504456	132.4245	-35.723045	5.1509733
1448090700898	0.667938232421875	5.986419677734375	6.3073272705078125	-6.206365954737933	0	-16.596985	-27.154541	-13.845825	132.50702	-35.39023	5.343091
1448090700939	0.967864990234375	5.436553955078125	8.709121704101563	-5.918986252543334	0	-17.449951	-28.683472	-14.012146	133.03381	-34.511932	6.6247253
1448090700979	1.453460693359375	5.015228271484375	6.8405303955078125	-6.158419719318744	0	-16.426086	-26.644897	-15.007019	133.56628	-34.148823	6.557539
1448090701020	0.648895263671875	5.265167236328125	7.0166778564453125	-6.210666135696415	0	-17.449951	-26.304626	-14.012146	134.1789	-33.71959	6.5972056
1448090701060	1.793853759765625	5.177093505859375	8.792434692382813	-5.836287423135577	0	-14.72168	-28.004456	-15.6692505	134.52869	-33.51794	7.0039425
1448090701100	1.165435791015625	4.648651123046875	9.758865356445313	-5.860341991391362	0	-14.72168	-28.004456	-15.6692505	134.70898	-33.921753	7.0933175
1448090701141	1.772430419921875	5.774566650390625	7.0238189697265625	-5.9894261711000025	0	-14.72168	-26.644897	-13.679504	136.11008	-36.768574	7.4150305
1448090701181	2.638885498046875	7.447967529296875	5.3980255126953125	-5.871516958939867	0	-16.085815	-28.004456	-12.0224	138.14838	-39.1812	9.081331
1448090701221	2.779327392578125	6.438690185546875	5.9407501220703125	-5.913173783902497	0	-15.914917	-28.85437	-11.524963	140.69366	-40.06308	10.408542
1448090701261	2.874542236328125	6.398223876953125	8.294937133789063	-5.615215593020569	0	-14.72168	-29.023743	-11.358643	144.1853	-39.032345	11.440357
1448090701302	1.082122802734375	5.917388916015625	6.8238677978515625	-6.088619430308764	0	-13.697815	-30.04303	-10.36377	148.4166	-39.631042	11.813069
1448090701342	2.688873291015625	7.098052978515625	11.177566528320313	-5.227900097423771	0	-13.868713	-30.892944	-11.524963	152.79114	-42.84323	12.543175
1448090701382	-0.638885498046875	6.260162353515625	7.1356964111328125	-5.895788210545147	0	-12.164307	-30.212402	-8.87146	157.35767	-50.03244	11.868757
1448090701422	3.495819091796875	8.507232666015625	9.689834594726563	-5.149037724244681	0	-10.800171	-33.27179	-2.2384644	161.0227	-58.033955	11.590034
1448090701463	2.760284423828125	7.609832763671875	11.734573364257813	-5.105037435090562	0	-10.629272	-35.14099	-0.08239746	166.69763	-57.286823	13.955826
1448090701503	3.395843505859375	9.459381103515625	2.6486968994140625	-5.869098062376468	0	-10.287476	-34.121704	0.24871826	169.89044	-57.33037	15.502596
1448090701543	3.443450927734375	8.980926513671875	5.5099029541015625	-5.571711525021253	0	-9.605408	-33.441162	0.24871826	173.61084	-58.535206	15.8538065
1448090701583	2.543670654296875	7.500335693359375	4.9219512939453125	-5.938013999714939	0	-8.241272	-35.481262	0.9124756	175.3534	-58.885662	15.603316
1448090701623	1.993804931640625	8.140655517578125	2.7486724853515625	-6.217291858509454	0	-7.3898315	-35.990906	1.7410278	178.50494	-59.886116	14.967404
1448090701664	2.531768798828125	7.966888427734375	7.5379791259765625	-5.559643872072721	0	-7.7301025	-35.310364	0.41503906	180.96188	-60.668095	15.202076
1448090701704	1.317779541015625	7.114715576171875	3.8341217041015625	-6.304226972852682	0	-7.901001	-36.50055	2.571106	182.38918	-62.453003	14.38714
1448090701744	1.448699951171875	7.595550537109375	3.1676177978515625	-6.3120516334535	0	-6.025696	-36.66992	3.730774	182.43015	-64.38858	13.788149
1448090701784	1.698638916015625	7.697906494140625	4.9647979736328125	-6.016963687134467	0	-6.365967	-36.32965	3.3996582	182.43932	-65.67901	13.867874
1448090701824	0.141876220703125	7.428924560546875	3.1866607666015625	-6.52674305984978	0	-6.7077637	-37.010193	6.0531616	182.34068	-66.884254	12.537228
1448090701864	0.941680908203125	7.943084716796875	-0.2815399169921875	-6.873474413188584	0	-5.5145264	-36.84082	7.2128296	180.48343	-67.53304	10.346263
1448090701905	-1.369659423828125	6.812408447265625	4.6791534423828125	-6.625106252431051	0	-4.66156	-35.990906	7.710266	179.56812	-67.51234	9.70893
1448090701945	0.596527099609375	8.690521240234375	3.5651397705078125	-6.2216051450034735	0	-3.2974243	-37.010193	8.042908	176.61829	-68.741104	8.499014
1448090701985	1.643890380859375	7.150421142578125	2.3725738525390625	-6.464910999512886	0	-2.9556274	-35.990906	7.0480347	173.84155	-71.002205	7.4462585
1448090702026	0.151397705078125	7.433685302734375	1.6846466064453125	-6.7619769339608204	0	-4.1503906	-35.820007	9.866333	172.30713	-72.14611	6.9504843
1448090702066	1.417755126953125	8.024017333984375	3.5484771728515625	-6.202401110678121	0	-5.8547974	-36.16028	12.519836	168.28247	-74.76775	5.7879853
1448090702106	-0.103302001953125	8.416778564453125	2.5320587158203125	-6.513343970123137	0	-3.4683228	-35.14099	14.5095825	165.9101	-76.193794	5.2290583
1448090702147	3.479156494140625	8.438201904296875	0.4492340087890625	-6.289983386374544	0	-5.001831	-36.32965	15.007019	162.69293	-77.10825	6.404781
1448090702187	0.551300048828125	9.509368896484375	3.8484039306640625	-6.077113054590945	0	-7.559204	-36.50055	14.5095825	160.90894	-76.07252	7.472802
1448090702227	2.403228759765625	9.466522216796875	6.7548370361328125	-5.490978606423483	0	-8.071899	-35.650635	15.007019	159.32288	-74.07473	7.9324546
1448090702267	4.652679443359375	8.723846435546875	5.6789093017578125	-5.44134683658965	0	-8.753967	-37.350464	14.675903	156.74219	-73.70681	8.58998
1448090702307	2.903106689453125	9.130889892578125	4.0626373291015625	-5.794538944740146	0	-9.265137	-37.519836	16.168213	155.69543	-74.36368	8.611989
1448090702348	-0.407989501953125	8.957122802734375	-0.6552581787109375	-6.996995913643648	0	-9.776306	-37.68921	14.675903	152.88983	-77.03309	7.9707108
1448090702388	4.926422119140625	8.747650146484375	2.6201324462890625	-5.769991929860658	0	-8.753967	-39.72931	16.66565	149.97229	-76.47504	9.950181
1448090702428	3.719573974609375	10.366302490234375	2.7510528564453125	-5.703317250628581	0	-14.379883	-39.219666	15.835571	147.98514	-74.955635	10.740407
1448090702469	2.008087158203125	9.999725341796875	3.4485015869140625	-5.8751480942895835	0	-14.550781	-38.36975	15.338135	146.37341	-73.69851	10.39068
1448090702509	4.221832275390625	8.652435302734375	4.5958404541015625	-5.62687416781596	0	-14.379883	-40.91797	14.840698	144.56613	-72.69093	10.353939
1448090702549	-0.227081298828125	8.157318115234375	3.4580230712890625	-5.961466785340647	0	-16.085815	-39.89868	12.850952	144.10349	-72.51604	9.740274
1448090702590	0.306121826171875	11.189910888671875	1.9893341064453125	-6.134357249133839	0	-15.57312	-42.108154	11.358643	142.60022	-74.007614	8.709074
1448090702630	4.193267822265625	9.447479248046875	-0.0316009521484375	-6.117542380747617	0	-16.255188	-42.78717	12.0224	142.11722	-75.65847	9.346278
1448090702670	-9.46044921875E-4	7.928802490234375	2.0536041259765625	-6.6472550407894575	0	-16.426086	-40.238953	13.845825	142.46277	-75.38201	8.622192
1448090702711	2.660308837890625	9.773590087890625	4.4696807861328125	-5.695203678564415	0	-17.108154	-42.617798	10.861206	142.18979	-73.92109	8.982026
1448090702751	2.836456298828125	9.385589599609375	3.8841094970703125	-5.793352512551984	0	-16.596985	-43.806458	10.694885	141.65924	-73.760765	9.133991
1448090702792	-0.967376708984375	8.959503173828125	3.4056549072265625	-6.430539963201141	0	-16.426086	-42.956543	12.188721	141.75464	-74.715385	7.4690285
1448090702832	-1.303009033203125	8.540557861328125	2.6248931884765625	-6.666147482192803	0	-14.72168	-42.617798	10.861206	141.80222	-76.76538	5.2675757
1448090702872	10.508392333984375	19.394454956054688	-6.3205413818359375	-4.950438356458557	0	-13.697815	-42.956543	13.514709	140.52301	-79.89666	5.0811615
1448090702912	-1.952850341796875	8.685760498046875	2.4749298095703125	-6.772157717500576	0	-13.357544	-42.617798	14.840698	141.08627	-80.222725	4.1454473
1448090702952	-0.112823486328125	9.078521728515625	2.1869049072265625	-6.823582781874563	0	-12.8463745	-42.108154	15.007019	141.1388	-80.11977	3.5720913
1448090702993	0.758392333984375	9.442718505859375	0.5944366455078125	-6.520942153334957	0	-12.675476	-43.637085	14.840698	140.23566	-79.83434	3.662134
1448090703033	1.548675537109375	9.735504150390625	2.9057769775390625	-6.039644111614915	0	-13.528442	-42.108154	12.353516	139.3057	-78.636795	4.0736504
1448090703073	0.025238037109375	9.542694091796875	2.2725982666015625	-6.365592822514342	0	-12.333679	-43.296814	11.856079	139.51263	-78.51231	3.724784
1448090703115	0.556060791015625	9.566497802734375	0.5063629150390625	-6.546397320903337	0	-12.8463745	-43.467712	12.686157	139.54141	-78.786255	2.955649
1448090703155	0.646514892578125	9.464141845703125	1.3609161376953125	-6.419628952592514	0	-11.993408	-43.637085	11.856079	139.288	-78.3728	2.1896718
1448090703196	0.503692626953125	9.128509521484375	2.2916412353515625	-6.353508141420349	0	-12.504578	-45.166016	13.348389	139.26013	-78.01089	2.058025
1448090703236	-0.017608642578125	9.847381591796875	1.6751251220703125	-6.414712904106467	0	-12.164307	-45.166016	11.358643	139.42383	-77.7441	1.5866883
1448090703276	-0.084259033203125	9.692657470703125	1.8417510986328125	-6.422793040947399	0	-11.140442	-46.185303	13.017273	139.49579	-77.95937	1.532293
1448090703317	1.820037841796875	10.066375732421875	1.1562042236328125	-6.195143535102276	0	-12.504578	-46.185303	12.353516	138.81824	-78.6259	2.3365211
1448090703357	-0.022369384765625	9.297515869140625	2.7034454345703125	-6.345589754573773	0	-11.82251	-45.846558	12.353516	138.61542	-78.67153	2.2183897
1448090703397	1.293975830078125	9.711700439453125	1.1800079345703125	-6.315800062435321	0	-12.675476	-44.656372	12.850952	138.60513	-78.5624	2.217922
1448090703438	0.287078857421875	9.249908447265625	1.1657257080078125	-6.535099883433395	0	-12.675476	-46.3562	12.519836	139.05429	-77.99035	2.1841967
1448090703478	0.199005126953125	9.240386962890625	1.0538482666015625	-6.567272854365383	0	-12.164307	-46.525574	11.358643	139.51794	-76.85785	2.0604327
1448090703518	0.420379638671875	9.095184326171875	0.8896026611328125	-6.580895948792486	0	-10.800171	-47.20459	10.032654	139.90994	-75.17316	2.0705068
1448090703558	0.534637451171875	8.628631591796875	1.6370391845703125	-6.520217759976928	0	-12.164307	-47.88513	7.710266	140.5929	-72.40752	2.0870707
1448090703598	0.929779052734375	10.749542236328125	5.6217803955078125	-5.647140698050969	0	-11.140442	-51.283264	5.3894043	141.26276	-69.741234	2.4802732
1448090703639	-0.293731689453125	8.704803466796875	2.9129180908203125	-6.441486351374731	0	-10.969543	-54.171753	0.24871826	141.72552	-70.20128	2.6663392
1448090703679	-0.472259521484375	8.914276123046875	4.0388336181640625	-6.273775319984508	0	-9.605408	-52.812195	3.2333374	142.07538	-70.46574	2.2382877
1448090703719	0.051422119140625	9.035675048828125	3.0414581298828125	-6.323992457101782	0	-10.118103	-53.32184	2.7359009	142.35068	-70.69624	2.2023342
1448090703759	1.215423583984375	9.416534423828125	2.7796173095703125	-6.144418229882245	0	-9.094238	-54.681396	1.7410278	142.44589	-71.01826	2.363822
1448090703799	-0.193756103515625	8.845245361328125	3.0343170166015625	-6.3881491411438915	0	-10.629272	-54.512024	3.565979	142.65845	-71.58347	2.1121562
1448090703840	0.015716552734375	9.221343994140625	3.3842315673828125	-6.2539542092888265	0	-10.969543	-54.512024	5.555725	142.82562	-72.24623	1.943729
1448090703880	0.165679931640625	9.140411376953125	3.0105133056640625	-6.297097953518502	0	-9.265137	-54.512024	4.560852	143.08667	-73.06247	1.9181526
1448090703920	-0.308013916015625	9.218963623046875	4.1721343994140625	-6.18954538243541	0	-9.776306	-52.642822	6.715393	143.45868	-74.43869	1.7109059
1448090703960	0.125213623046875	10.230621337890625	1.4965972900390625	-6.363863842381097	0	-9.947205	-54.171753	8.207703	143.62173	-76.85805	1.5550016
1448090704001	0.570343017578125	9.923553466796875	2.0036163330078125	-6.271417852304804	0	-9.094238	-52.30255	11.027527	143.81036	-79.25073	1.7111417
1448090704041	0.122833251953125	9.944976806640625	1.8203277587890625	-6.358682104025269	0	-9.947205	-49.414063	12.850952	144.33322	-81.81438	1.5867857
1448090704081	0.413238525390625	10.297271728515625	0.4016265869140625	-6.473112810761032	0	-10.969543	-48.735046	16.830444	144.55032	-84.46892	1.6116575
1448090704122	0.346588134765625	9.540313720703125	-0.7314300537109375	-6.780798981797082	0	-9.265137	-47.71576	16.499329	144.70795	-86.254845	1.5903014
1448090704162	-0.198516845703125	9.578399658203125	0.5753936767578125	-6.651401671961362	0	-12.164307	-48.225403	18.655396	144.9278	-86.78485	1.5057024
1448090704202	-0.046173095703125	9.556976318359375	0.5777740478515625	-6.630347920818025	0	-9.947205	-45.67566	19.815063	145.22961	-86.74785	1.5981266
1448090704244	-0.298492431640625	9.561737060546875	0.4230499267578125	-6.694318753765325	0	-9.947205	-45.67566	19.815063	145.45999	-86.7077	1.6790802
1448090704284	0.615570068359375	9.687896728515625	0.9467315673828125	-6.552609342331278	0	-10.629272	-47.37549	20.47882	145.46744	-86.65817	1.8303905
1448090704324	0.506072998046875	9.578399658203125	0.1231231689453125	-6.611667164212163	0	-10.118103	-47.54486	18.655396	145.54654	-86.67848	2.2077115
1448090704365	-0.334197998046875	9.490325927734375	-0.1934661865234375	-6.812829510606388	0	-13.015747	-46.3562	19.815063	146.0747	-86.6386	1.9295925
1448090704405	0.049041748046875	9.652191162109375	0.4135284423828125	-6.626228739826265	0	-10.800171	-47.54486	19.317627	146.39539	-86.469765	1.8716767
1448090704445	0.891693115234375	9.680755615234375	0.5515899658203125	-6.471328092600385	0	-11.31134	-45.67566	19.483948	146.56613	-86.30305	1.9571463
1448090704485	0.382293701171875	9.704559326171875	0.9538726806640625	-6.483841250405348	0	-10.969543	-47.035217	19.815063	146.62689	-86.36157	1.7085056
1448090704526	0.384674072265625	10.137786865234375	-0.3243865966796875	-6.6131576033345585	0	-9.776306	-46.185303	18.655396	146.92581	-86.40608	1.1661065
1448090704566	-0.905487060546875	9.204681396484375	1.5989532470703125	-6.660467837644481	0	-10.969543	-46.3562	18.157959	147.35495	-86.40456	0.8353106
1448090704606	-0.741241455078125	9.416534423828125	0.3849639892578125	-6.796573927354148	0	-8.92334	-46.694946	18.82019	148.13153	-86.44781	0.51915437
1448090704646	0.991668701171875	9.790252685546875	-0.1125335693359375	-6.540197113431533	0	-10.800171	-46.185303	18.986511	147.53784	-86.40298	1.0097677
1448090704687	0.898834228515625	9.675994873046875	0.1421661376953125	-6.532917785847592	0	-9.436035	-47.54486	18.986511	147.69116	-86.44939	1.3067491
1448090704727	-0.329437255859375	9.568878173828125	0.4682769775390625	-6.6908789124333	0	-9.605408	-47.37549	18.489075	148.33191	-86.41851	1.0294298
1448090704767	-0.688873291015625	9.430816650390625	0.8419952392578125	-6.710806305544115	0	-9.436035	-45.506287	18.655396	148.2771	-86.391014	0.59574336
1448090704807	-0.693634033203125	9.416534423828125	0.3611602783203125	-6.7926224504908275	0	-9.776306	-45.846558	19.650269	148.10452	-86.36724	0.7409134
1448090704847	1.089263916015625	9.718841552734375	0.7134552001953125	-6.412257549841897	0	-10.287476	-47.035217	19.815063	148.4212	-86.37487	1.1634302
1448090704888	0.917877197265625	9.723602294921875	0.6230010986328125	-6.450340088905462	0	-10.287476	-47.71576	18.489075	148.69302	-86.36135	1.0629109
1448090704928	-0.907867431640625	9.464141845703125	0.5777740478515625	-6.784341165632224	0	-11.482239	-47.20459	19.650269	148.62354	-86.34707	0.67495096
1448090704968	0.327545166015625	9.883087158203125	0.5420684814453125	-6.527468894712493	0	-9.094238	-46.865845	19.650269	148.74805	-86.37272	0.8148998
1448090705008	0.910736083984375	9.737884521484375	0.5039825439453125	-6.467048660461399	0	-9.776306	-47.54486	18.322754	148.84262	-86.389244	1.0625687
1448090705049	-0.891204833984375	9.592681884765625	0.6706085205078125	-6.74521378273027	0	-11.31134	-47.035217	18.157959	149.08444	-86.38829	0.83516616
1448090705089	0.234710693359375	9.833099365234375	0.9919586181640625	-6.480976949087913	0	-9.947205	-46.694946	19.152832	149.108	-86.391174	0.8263441
1448090705129	0.875030517578125	9.790252685546875	0.6468048095703125	-6.443255234339585	0	-8.92334	-46.694946	19.152832	149.4176	-86.39136	0.9897574
1448090705169	-0.681732177734375	9.421295166015625	0.4420928955078125	-6.776475269268761	0	-10.287476	-46.01593	18.157959	149.70618	-86.376274	0.8219843
1448090705210	0.875030517578125	9.768829345703125	0.6206207275390625	-6.450340088905462	0	-10.629272	-48.054504	18.82019	149.81036	-86.3891	0.94750315
1448090705250	-0.662689208984375	9.571258544921875	0.4206695556640625	-6.752219720532238	0	-9.947205	-48.054504	19.152832	150.0286	-86.38425	0.8560919
1448090705290	0.510833740234375	9.699798583984375	0.7253570556640625	-6.499639253350168	0	-9.436035	-47.20459	18.986511	150.16968	-86.384895	0.91589063
1448090705331	-0.134246826171875	9.556976318359375	0.5944366455078125	-6.641609298955949	0	-10.118103	-45.506287	18.655396	150.43237	-86.3746	0.8632397
1448090705371	0.113311767578125	9.635528564453125	0.6015777587890625	-6.589393433610407	0	-9.436035	-46.525574	18.322754	150.59845	-86.373886	0.8910759
1448090705411	0.144256591796875	9.671234130859375	0.5420684814453125	-6.588283793642774	0	-10.118103	-46.525574	19.650269	150.75748	-86.37288	0.8745313
1448090705453	0.115692138671875	9.618865966796875	0.6039581298828125	-6.5912436845426345	0	-10.118103	-46.525574	19.650269	150.8498	-86.37123	0.87873405
1448090705494	0.099029541015625	9.626007080078125	0.5634918212890625	-6.599026393302436	0	-9.436035	-46.865845	19.317627	151.2987	-86.36124	0.87225133
1448090705534	0.027618408203125	9.618865966796875	0.5920562744140625	-6.606828031653808	0	-10.629272	-44.996643	18.82019	151.39893	-86.35797	0.87100214
1448090705574	0.091888427734375	9.673614501953125	0.5587310791015625	-6.593465392052636	0	-9.776306	-46.865845	19.650269	151.51892	-86.36408	0.8235408
1448090705615	0.034759521484375	9.554595947265625	0.5944366455078125	-6.61539456721166	0	-9.947205	-46.694946	19.483948	151.68262	-86.36302	0.8096494
1448090705655	0.153778076171875	9.618865966796875	0.5753936767578125	-6.600139750893274	0	-10.118103	-47.20459	18.986511	151.73776	-86.35939	0.7910337
1448090705696	0.132354736328125	9.640289306640625	0.5920562744140625	-6.587174536134931	0	-10.458374	-47.20459	19.317627	151.87384	-86.3653	0.7937993
1448090705737	0.056182861328125	9.545074462890625	0.5396881103515625	-6.622114887054688	0	-10.458374	-46.525574	18.655396	151.99686	-86.35327	0.7949417
1448090705777	0.118072509765625	9.573638916015625	0.5587310791015625	-6.604968774377221	0	-10.287476	-46.3562	19.152832	152.13293	-86.387115	0.7865619
1448090705817	0.096649169921875	9.645050048828125	0.6110992431640625	-6.5890235111012405	0	-10.458374	-46.865845	17.991638	152.22388	-86.3856	0.7682213
1448090705858	0.118072509765625	9.628387451171875	0.5182647705078125	-6.6027390898721405	0	-10.287476	-45.336914	19.815063	152.2915	-86.390686	0.7698282
1448090705898	0.137115478515625	9.640289306640625	0.6063385009765625	-6.58421838291415	0	-10.629272	-48.054504	20.147705	152.37042	-86.41609	0.752775
1448090705938	0.134735107421875	9.583160400390625	0.6039581298828125	-6.593835826006628	0	-9.436035	-46.185303	19.317627	152.46631	-86.419464	0.7503809
1448090705978	0.079986572265625	9.626007080078125	0.5658721923828125	-6.6016248293120015	0	-11.482239	-46.525574	19.317627	152.60938	-86.42561	0.7431822
1448090706019	0.084747314453125	9.559356689453125	0.5849151611328125	-6.608316215680812	0	-10.287476	-46.694946	19.483948	152.65613	-86.43867	0.7335097
1448090706059	0.115692138671875	9.654571533203125	0.5230255126953125	-6.598284369553033	0	-10.629272	-47.37549	18.157959	152.75177	-86.450615	0.7194359
1448090706099	0.065704345703125	9.609344482421875	0.5444488525390625	-6.609805092492785	0	-8.92334	-46.01593	18.489075	152.77728	-86.4692	0.71602917
1448090706139	0.077606201171875	9.642669677734375	0.5777740478515625	-6.597542517380249	0	-11.31134	-48.394775	18.489075	152.82257	-86.48008	0.69761187
1448090706179	0.060943603515625	9.597442626953125	0.5896759033203125	-6.6053405394455975	0	-9.947205	-48.054504	19.152832	152.87567	-86.477554	0.6807973
1448090706220	0.146636962890625	9.649810791015625	0.6063385009765625	-6.581264939129143	0	-8.753967	-47.88513	18.655396	152.97046	-86.46811	0.6652395
1448090706260	0.094268798828125	9.616485595703125	0.5349273681640625	-6.605712347692391	0	-10.629272	-47.71576	18.157959	153.07416	-86.47441	0.6697606
1448090706301	0.141876220703125	9.618865966796875	0.5539703369140625	-6.594947384225052	0	-11.31134	-47.71576	18.82019	153.1192	-86.49576	0.65865403
1448090706341	0.072845458984375	9.614105224609375	0.5872955322265625	-6.6012534952020685	0	-9.265137	-47.37549	19.152832	153.12378	-86.49753	0.6543378
1448090706381	0.103790283203125	9.618865966796875	0.5849151611328125	-6.596059327288811	0	-10.118103	-46.865845	19.650269	153.24542	-86.4872	0.64768386
1448090706421	0.096649169921875	9.637908935546875	0.6468048095703125	-6.584587753741605	0	-9.094238	-46.865845	19.317627	153.31995	-86.49003	0.6376445
1448090706462	0.099029541015625	9.633148193359375	0.5825347900390625	-6.594947384225052	0	-10.800171	-46.865845	19.317627	153.48004	-86.47119	0.6345034
1448090706502	0.106170654296875	9.599822998046875	0.5420684814453125	-6.6053405394455975	0	-10.629272	-46.694946	19.483948	153.52136	-86.47728	0.630989
1448090706542	0.089508056640625	9.623626708984375	0.5468292236328125	-6.603482145587238	0	-8.753967	-46.185303	19.650269	153.56378	-86.4995	0.6296989
1448090706583	0.094268798828125	9.602203369140625	0.4873199462890625	-6.61539456721166	0	-10.458374	-46.185303	19.650269	153.71161	-86.514496	0.6239195
1448090706624	0.099029541015625	9.599822998046875	0.5277862548828125	-6.608688369897424	0	-10.118103	-46.525574	18.322754	153.74927	-86.52547	0.61822945
1448090706664	0.094268798828125	9.621246337890625	0.5468292236328125	-6.603110596185534	0	-11.31134	-47.035217	18.157959	153.78986	-86.546524	0.6096367
1448090706704	0.091888427734375	9.642669677734375	0.5349273681640625	-6.601996206450349	0	-11.482239	-46.185303	19.981384	153.78796	-86.54999	0.61004055
1448090706744	0.099029541015625	9.645050048828125	0.5492095947265625	-6.598284369553033	0	-9.265137	-48.394775	18.82019	153.781	-86.572334	0.61029834
1448090706785	0.089508056640625	9.585540771484375	0.5968170166015625	-6.6016248293120015	0	-9.605408	-48.394775	18.82019	153.86877	-86.57545	0.6030648
1448090706825	0.113311767578125	9.609344482421875	0.5825347900390625	-6.596430060567032	0	-9.265137	-48.394775	19.152832	153.91345	-86.570175	0.600283
1448090706866	0.118072509765625	9.609344482421875	0.6301422119140625	-6.588283793642774	0	-10.800171	-46.185303	19.317627	154.0473	-86.55466	0.58880085
1448090706906	0.082366943359375	9.616485595703125	0.5349273681640625	-6.607572037129628	0	-11.482239	-46.525574	17.991638	154.03455	-86.561134	0.5933662
1448090706946	0.072845458984375	9.618865966796875	0.5301666259765625	-6.609432808288279	0	-9.947205	-47.71576	19.152832	154.05847	-86.57327	0.5899203
1448090706986	0.113311767578125	9.611724853515625	0.5373077392578125	-6.603110596185534	0	-9.605408	-46.694946	18.82019	154.12793	-86.57712	0.5903625
1448090707026	0.094268798828125	9.590301513671875	0.5825347900390625	-6.602367626632072	0	-11.482239	-47.88513	18.986511	154.15747	-86.58161	0.5943003
1448090707067	0.075225830078125	9.628387451171875	0.5706329345703125	-6.6012534952020685	0	-10.458374	-47.54486	18.322754	154.22577	-86.58378	0.59797
1448090707108	0.110931396484375	9.640289306640625	0.5682525634765625	-6.59420630267684	0	-9.776306	-47.88513	17.660522	154.23907	-86.572716	0.5927686
1448090707148	0.106170654296875	9.585540771484375	0.4992218017578125	-6.614275889334063	0	-9.605408	-47.035217	18.157959	154.28339	-86.57981	0.5951396
1448090707188	0.106170654296875	9.628387451171875	0.5706329345703125	-6.596430060567032	0	-9.947205	-46.694946	19.815063	154.29407	-86.59727	0.58927214
1448090707228	0.094268798828125	9.587921142578125	0.5658721923828125	-6.6053405394455975	0	-11.31134	-47.035217	18.82019	154.3645	-86.59196	0.58063334
1448090707269	0.099029541015625	9.623626708984375	0.5325469970703125	-6.604225373715574	0	-10.458374	-46.525574	19.981384	154.34705	-86.5923	0.57901263
1448090707309	0.132354736328125	9.592681884765625	0.5277862548828125	-6.604597052472224	0	-9.436035	-47.88513	20.3125	154.4353	-86.5851	0.5788
1448090707349	0.110931396484375	9.611724853515625	0.5777740478515625	-6.597171655597906	0	-10.629272	-47.71576	19.152832	154.5586	-86.600365	0.5862992
1448090707390	0.101409912109375	9.599822998046875	0.5801544189453125	-6.600139750893274	0	-8.92334	-46.3562	18.489075	154.62793	-86.587814	0.58783686
1448090707430	0.091888427734375	9.587921142578125	0.6230010986328125	-6.596800836665117	0	-9.265137	-47.71576	18.489075	154.66028	-86.57735	0.5834252
1448090707470	0.087127685546875	9.614105224609375	0.5944366455078125	-6.597913422027002	0	-9.265137	-47.71576	18.489075	154.70386	-86.566284	0.58127946
1448090707514	0.089508056640625	9.606964111328125	0.5872955322265625	-6.59976858874756	0	-10.118103	-46.525574	18.322754	154.75366	-86.547264	0.57878566
1448090707555	0.087127685546875	9.633148193359375	0.4992218017578125	-6.609805092492785	0	-9.947205	-46.3562	18.489075	154.76642	-86.549194	0.5774007
1448090707595	0.087127685546875	9.633148193359375	0.4992218017578125	-6.609805092492785	0	-9.947205	-46.3562	18.489075	154.76642	-86.549194	0.5774007
1448090707635	0.103790283203125	9.561737060546875	0.5587310791015625	-6.610922205324383	0	-9.265137	-47.71576	19.152832	154.76154	-86.56961	0.56457454
1448090707675	0.049041748046875	9.614105224609375	0.5968170166015625	-6.603482145587238	0	-10.287476	-46.694946	18.82019	154.86719	-86.57669	0.5632307
1448090707716	0.091888427734375	9.587921142578125	0.5849151611328125	-6.6027390898721405	0	-9.605408	-48.735046	18.489075	154.82385	-86.56799	0.550059
1448090707756	0.106170654296875	9.633148193359375	0.5801544189453125	-6.597913422027002	0	-9.605408	-48.735046	18.489075	154.85315	-86.56479	0.5501657
1448090707796	0.108551025390625	9.592681884765625	0.5920562744140625	-6.598284369553033	0	-10.629272	-47.71576	18.489075	154.88202	-86.5781	0.5482847
1448090707837	0.106170654296875	9.587921142578125	0.4897003173828125	-6.61539456721166	0	-10.800171	-48.225403	18.986511	154.89038	-86.5726	0.5505345
1448090707877	0.120452880859375	9.652191162109375	0.5301666259765625	-6.596800836665117	0	-10.969543	-47.035217	18.489075	154.9148	-86.57517	0.5658186
1448090707917	0.063323974609375	9.604583740234375	0.5611114501953125	-6.608316215680812	0	-9.265137	-47.71576	18.82019	154.91406	-86.577156	0.56630194
1448090707958	0.106170654296875	9.614105224609375	0.5587310791015625	-6.603482145587238	0	-8.753967	-48.564148	18.322754	154.90125	-86.578545	0.55955416
1448090707999	0.113311767578125	9.621246337890625	0.5968170166015625	-6.592354346340294	0	-10.287476	-48.054504	19.483948	154.90112	-86.57899	0.55968654
1448090708039	0.106170654296875	9.623626708984375	0.5968170166015625	-6.59309500080009	0	-9.605408	-47.035217	19.152832	154.89673	-86.59191	0.5631479
1448090708079	0.099029541015625	9.611724853515625	0.6039581298828125	-6.594947384225052	0	-10.118103	-46.865845	18.322754	154.89954	-86.587006	0.5624964
1448090708119	0.101409912109375	9.628387451171875	0.4825592041015625	-6.610922205324383	0	-10.287476	-45.336914	19.483948	154.90576	-86.57452	0.56030047
1448090708159	0.101409912109375	9.611724853515625	0.6444244384765625	-6.588283793642774	0	-10.969543	-47.71576	18.489075	154.91425	-86.578285	0.56692433
1448090708199	0.125213623046875	9.649810791015625	0.5349273681640625	-6.595688636815622	0	-10.287476	-48.054504	18.82019	154.92078	-86.56248	0.5634006
1448090708240	0.094268798828125	9.628387451171875	0.5396881103515625	-6.603110596185534	0	-10.458374	-45.506287	19.650269	154.92126	-86.57044	0.5673436
1448090708280	0.089508056640625	9.642669677734375	0.5682525634765625	-6.597171655597906	0	-9.776306	-47.88513	19.317627	154.91315	-86.574165	0.564403
1448090708320	0.120452880859375	9.599822998046875	0.5777740478515625	-6.597542517380249	0	-9.436035	-48.90442	18.322754	154.91107	-86.57585	0.5639719
1448090708361	0.099029541015625	9.614105224609375	0.6182403564453125	-6.592354346340294	0	-10.287476	-48.054504	19.815063	154.92047	-86.58929	0.5756171
1448090708401	0.156158447265625	9.599822998046875	0.5039825439453125	-6.603482145587238	0	-9.436035	-47.20459	19.650269	154.93	-86.584564	0.5789033
1448090708441	0.072845458984375	9.616485595703125	0.6110992431640625	-6.597171655597906	0	-9.776306	-46.525574	18.986511	154.93677	-86.598175	0.58908683
1448090708481	0.106170654296875	9.614105224609375	0.5420684814453125	-6.603110596185534	0	-9.605408	-46.694946	19.152832	154.91309	-86.60419	0.5782332
1448090708522	0.129974365234375	9.592681884765625	0.6110992431640625	-6.59198408310354	0	-10.287476	-48.054504	17.825317	154.89563	-86.60386	0.5680335
1448090708562	0.103790283203125	9.604583740234375	0.6110992431640625	-6.59420630267684	0	-10.969543	-47.71576	19.483948	154.91986	-86.585594	0.5735551
1448090708602	0.122833251953125	9.616485595703125	0.6063385009765625	-6.590133406261955	0	-9.947205	-47.035217	18.489075	154.93286	-86.56927	0.57351065
1448090708642	0.091888427734375	9.618865966796875	0.5587310791015625	-6.601996206450349	0	-10.800171	-46.525574	18.986511	154.9336	-86.56646	0.57261926
1448090708683	0.110931396484375	9.611724853515625	0.6134796142578125	-6.591613862509231	0	-8.753967	-47.20459	17.991638	154.9386	-86.566986	0.5757656
1448090708723	0.108551025390625	9.604583740234375	0.5111236572265625	-6.6090605674282035	0	-10.629272	-48.394775	19.483948	154.94629	-86.56916	0.581172
1448090708763	0.099029541015625	9.609344482421875	0.5325469970703125	-6.606456093781436	0	-9.265137	-47.37549	18.82019	154.91333	-86.591576	0.57257664
1448090708803	0.115692138671875	9.630767822265625	0.5682525634765625	-6.594947384225052	0	-9.094238	-47.20459	17.991638	154.89392	-86.60429	0.56726164
1448090708844	0.089508056640625	9.623626708984375	0.5325469970703125	-6.605712347692391	0	-9.605408	-47.71576	17.163086	154.90082	-86.59947	0.5690033
1448090708884	0.094268798828125	9.626007080078125	0.5396881103515625	-6.6005109560076445	0	-11.482239	-47.54486	19.317627	154.88013	-86.61624	0.5648531
1448090708924	0.077606201171875	9.621246337890625	0.6325225830078125	-6.592354346340294	0	-9.776306	-46.865845	18.655396	154.88525	-86.61572	0.56756645
1448090708964	0.056182861328125	9.597442626953125	0.4873199462890625	-6.61539456721166	0	-10.118103	-48.564148	20.3125	154.87714	-86.61445	0.5623
1448090709005	0.101409912109375	9.616485595703125	0.4968414306640625	-6.6105497909956785	0	-9.605408	-46.694946	20.47882	154.85681	-86.62013	0.553242
1448090709045	0.113311767578125	9.614105224609375	0.5777740478515625	-6.596430060567032	0	-9.436035	-46.865845	19.650269	154.84857	-86.638435	0.5518938
1448090709086	0.087127685546875	9.597442626953125	0.5825347900390625	-6.602367626632072	0	-11.482239	-47.20459	19.650269	154.8562	-86.63519	0.55988044
1448090709126	0.065704345703125	9.654571533203125	0.6087188720703125	-6.592724652234228	0	-9.947205	-46.01593	19.483948	154.86151	-86.62391	0.55771166
1448090709166	0.103790283203125	9.640289306640625	0.5634918212890625	-6.596059327288811	0	-9.265137	-48.054504	17.494202	154.85718	-86.601204	0.5446595
1448090709207	0.075225830078125	9.635528564453125	0.5230255126953125	-6.607572037129628	0	-8.92334	-48.054504	20.147705	154.8584	-86.59624	0.54306793
1448090709248	0.127593994140625	9.626007080078125	0.5539703369140625	-6.596059327288811	0	-8.92334	-48.054504	20.147705	154.84265	-86.60664	0.5388535
1448090709288	0.103790283203125	9.611724853515625	0.6372833251953125	-6.5890235111012405	0	-10.118103	-47.54486	18.322754	154.85504	-86.619934	0.55213463
1448090709329	0.122833251953125	9.590301513671875	0.5563507080078125	-6.601996206450349	0	-9.265137	-46.01593	18.82019	154.8612	-86.60722	0.54978734
1448090709370	0.087127685546875	9.635528564453125	0.5991973876953125	-6.593835826006628	0	-10.118103	-46.525574	18.986511	154.87744	-86.59591	0.55389166
1448090709410	0.084747314453125	9.654571533203125	0.5563507080078125	-6.597913422027002	0	-10.118103	-46.185303	18.986511	154.88312	-86.58868	0.5538158
1448090709450	0.072845458984375	9.585540771484375	0.6063385009765625	-6.6027390898721405	0	-8.753967	-47.54486	19.317627	154.87305	-86.591034	0.5491232
1448090709491	0.089508056640625	9.623626708984375	0.5468292236328125	-6.603482145587238	0	-8.753967	-47.54486	19.317627	154.87146	-86.58398	0.5449395
1448090709531	0.125213623046875	9.587921142578125	0.5730133056640625	-6.5993974695555835	0	-11.140442	-46.185303	18.655396	154.87427	-86.58648	0.5477178
1448090709571	0.110931396484375	9.623626708984375	0.5706329345703125	-6.596430060567032	0	-9.776306	-46.525574	18.986511	154.87976	-86.57495	0.5455065
1448090709611	0.106170654296875	9.573638916015625	0.5587310791015625	-6.606828031653808	0	-10.118103	-46.185303	18.655396	154.87128	-86.59169	0.54838467
1448090709652	0.113311767578125	9.616485595703125	0.5896759033203125	-6.59420630267684	0	-9.605408	-46.694946	19.152832	154.85608	-86.5893	0.53852314
1448090709693	0.115692138671875	9.626007080078125	0.5182647705078125	-6.603482145587238	0	-10.458374	-47.54486	18.655396	154.86108	-86.59061	0.5420109
1448090709734	0.077606201171875	9.597442626953125	0.5587310791015625	-6.607572037129628	0	-10.458374	-47.54486	18.655396	154.8606	-86.60203	0.54703385
1448090709774	0.103790283203125	9.640289306640625	0.5182647705078125	-6.603110596185534	0	-10.800171	-46.525574	19.650269	154.857	-86.600395	0.544207
1448090709814	0.072845458984375	9.621246337890625	0.5301666259765625	-6.6090605674282035	0	-10.287476	-47.71576	17.825317	154.84302	-86.611206	0.5411451
1448090709855	0.091888427734375	9.623626708984375	0.5777740478515625	-6.598284369553033	0	-10.629272	-47.035217	19.483948	154.82715	-86.62401	0.5379596
1448090709896	0.060943603515625	9.604583740234375	0.5301666259765625	-6.613530321817802	0	-9.094238	-47.54486	18.322754	154.82343	-86.61553	0.5318882
1448090709936	0.089508056640625	9.609344482421875	0.5587310791015625	-6.6038537380922495	0	-11.651611	-46.694946	18.489075	154.82397	-86.61542	0.5321323
1448090709977	0.082366943359375	9.602203369140625	0.5920562744140625	-6.600882204105598	0	-9.947205	-48.394775	18.82019	154.82434	-86.61906	0.5340688
1448090710018	0.110931396484375	9.597442626953125	0.5753936767578125	-6.59976858874756	0	-9.605408	-46.694946	19.483948	154.82898	-86.60161	0.5286026
1448090710058	0.068084716796875	9.633148193359375	0.5706329345703125	-6.6016248293120015	0	-9.605408	-46.694946	19.152832	154.85449	-86.59853	0.5418744
1448090710098	0.129974365234375	9.606964111328125	0.5730133056640625	-6.596059327288811	0	-10.458374	-47.88513	18.986511	154.8451	-86.59943	0.53690094
1448090710139	0.101409912109375	9.616485595703125	0.5158843994140625	-6.607572037129628	0	-10.800171	-45.506287	20.3125	154.86572	-86.60915	0.55326754
1448090710181	0.137115478515625	9.611724853515625	0.5515899658203125	-6.597171655597906	0	-10.458374	-48.225403	18.655396	154.85815	-86.625244	0.5564053
1448090710221	0.051422119140625	9.611724853515625	0.6230010986328125	-6.5993974695555835	0	-10.458374	-46.865845	17.660522	154.87524	-86.65086	0.5780708
1448090710261	0.096649169921875	9.585540771484375	0.6087188720703125	-6.5986553599732165	0	-9.436035	-48.225403	17.32788	154.87201	-86.648705	0.57524395
1448090710302	0.075225830078125	9.621246337890625	0.6039581298828125	-6.597171655597906	0	-10.800171	-46.865845	19.981384	154.88306	-86.63074	0.5732639
1448090710342	0.106170654296875	9.630767822265625	0.5325469970703125	-6.601996206450349	0	-9.605408	-47.035217	16.830444	154.87964	-86.623856	0.56809926
1448090710383	0.089508056640625	9.609344482421875	0.5515899658203125	-6.604968774377221	0	-9.436035	-47.54486	18.986511	154.86835	-86.64368	0.5707828
1448090710423	0.113311767578125	9.630767822265625	0.6253814697265625	-6.5864352434121765	0	-8.241272	-47.37549	18.82019	154.86896	-86.62638	0.5631368
1448090710463	0.106170654296875	9.623626708984375	0.5563507080078125	-6.5993974695555835	0	-9.265137	-47.71576	18.489075	154.88477	-86.611275	0.56521505
1448090710503	0.089508056640625	9.585540771484375	0.5349273681640625	-6.611294663058151	0	-9.094238	-47.88513	18.986511	154.88129	-86.62163	0.5680343
1448090710543	0.089508056640625	9.611724853515625	0.5206451416015625	-6.609432808288279	0	-9.436035	-47.88513	19.981384	154.87592	-86.61959	0.5639907
1448090710583	0.106170654296875	9.585540771484375	0.5325469970703125	-6.6090605674282035	0	-9.947205	-47.71576	18.489075	154.86688	-86.63602	0.56640106
1448090710624	0.082366943359375	9.633148193359375	0.5801544189453125	-6.597913422027002	0	-10.800171	-45.166016	18.655396	154.85242	-86.651184	0.56511253
1448090710664	0.087127685546875	9.609344482421875	0.5277862548828125	-6.6090605674282035	0	-10.629272	-47.035217	20.47882	154.84021	-86.64147	0.55359197
1448090710704	0.122833251953125	9.590301513671875	0.5825347900390625	-6.597913422027002	0	-10.458374	-46.525574	19.317627	154.82935	-86.65222	0.5523455
1448090710745	0.099029541015625	9.576019287109375	0.5730133056640625	-6.6053405394455975	0	-9.776306	-47.20459	20.3125	154.83862	-86.64552	0.55456537
1448090710785	0.108551025390625	9.573638916015625	0.6634674072265625	-6.590133406261955	0	-9.265137	-47.035217	20.147705	154.86163	-86.628426	0.55987704
1448090710825	0.094268798828125	9.602203369140625	0.5825347900390625	-6.6005109560076445	0	-9.947205	-46.3562	20.147705	154.88477	-86.60803	0.5637293
1448090710866	0.158538818359375	9.616485595703125	0.5611114501953125	-6.591613862509231	0	-8.753967	-47.20459	19.317627	154.86908	-86.61902	0.55978304
1448090710906	-0.048553466796875	9.597442626953125	0.6706085205078125	-6.609805092492785	0	-9.947205	-46.3562	20.47882	154.88867	-86.62382	0.5732903
1448090710946	0.208526611328125	9.621246337890625	0.5111236572265625	-6.5908735491890305	0	-10.800171	-47.20459	18.655396	154.85919	-86.58213	0.5846505
1448090710987	0.527496337890625	9.668853759765625	0.5016021728515625	-6.535827572803663	0	-10.629272	-46.3562	20.809937	155.0492	-86.56717	0.7095921
1448090711027	-0.112823486328125	9.585540771484375	0.5682525634765625	-6.637851059387504	0	-8.583069	-46.694946	18.489075	155.05115	-86.58133	0.554345
1448090711067	0.075225830078125	9.602203369140625	0.6087188720703125	-6.5993974695555835	0	-10.458374	-46.525574	19.650269	155.12799	-86.593414	0.63798445
1448090711107	0.177581787109375	9.609344482421875	0.6087188720703125	-6.58237216350929	0	-11.140442	-46.185303	19.650269	155.17804	-86.57001	0.63170964
1448090711148	-0.058074951171875	9.578399658203125	0.6349029541015625	-6.619873205759111	0	-9.265137	-47.035217	19.152832	155.20343	-86.58518	0.63531363
1448090711188	0.118072509765625	9.630767822265625	0.6682281494140625	-6.579051629882937	0	-9.265137	-47.37549	19.483948	155.14691	-86.58402	0.6394488
1448090711228	-0.736480712890625	9.711700439453125	0.8586578369140625	-6.443963048066619	0	-10.118103	-47.20459	17.991638	155.26868	-86.56822	0.76088154
1448090711269	-0.405609130859375	9.573638916015625	0.6063385009765625	-6.680201387197593	0	-10.629272	-46.694946	19.152832	154.91083	-86.62488	0.55905384
1448090711310	0.344207763671875	9.666473388671875	-6.561279296875E-4	-6.642737641360791	0	-10.458374	-46.525574	18.322754	154.87323	-86.72429	0.6123107
1448090711350	-0.177093505859375	9.747406005859375	0.9871978759765625	-6.557367725142358	0	-10.800171	-47.54486	18.986511	154.67657	-86.76171	0.50626105
1448090711390	0.020477294921875	9.714080810546875	0.8396148681640625	-6.554804653790031	0	-9.436035	-46.865845	20.3125	154.25531	-86.72613	0.4609642
1448090711430	0.298980712890625	9.616485595703125	0.5158843994140625	-6.576839837386093	0	-9.436035	-46.525574	20.3125	154.0755	-86.74663	0.50730187
1448090711470	-0.124725341796875	9.609344482421875	0.5420684814453125	-6.640105467860348	0	-12.504578	-45.846558	18.322754	153.76843	-87.07501	0.646913
1448090711511	-0.208038330078125	9.585540771484375	0.5039825439453125	-6.663117061386913	0	-10.800171	-47.54486	18.655396	153.37585	-87.064095	0.5246274
1448090711551	0.382293701171875	9.685516357421875	-0.0196990966796875	-6.636724456399895	0	-10.629272	-45.67566	19.152832	153.07648	-87.200226	0.59284544
1448090711591	0.377532958984375	9.671234130859375	0.0659942626953125	-6.626228739826265	0	-11.993408	-46.3562	18.82019	153.24152	-87.31588	0.60586613
1448090711631	-0.024749755859375	9.618865966796875	0.6682281494140625	-6.603110596185534	0	-13.015747	-45.67566	19.483948	153.78406	-87.261765	0.4947945
1448090711671	-0.110443115234375	9.576019287109375	0.8634185791015625	-6.592724652234228	0	-9.265137	-46.01593	19.815063	154.32166	-87.081154	0.23211353
1448090711711	-0.174713134765625	9.626007080078125	0.6134796142578125	-6.634097271936506	0	-9.947205	-47.035217	20.809937	154.69922	-86.83778	-0.001090269
1448090711752	0.208526611328125	9.656951904296875	0.3230743408203125	-6.614648738397575	0	-11.140442	-46.525574	19.981384	154.95886	-86.79549	-0.027264407
1448090711792	-0.448455810546875	9.473663330078125	0.6896514892578125	-6.68973314227427	0	-8.583069	-46.694946	18.82019	155.32166	-86.797516	-0.13294719
1448090711832	-0.008087158203125	9.602203369140625	0.6182403564453125	-6.610922205324383	0	-9.094238	-46.865845	17.991638	155.59644	-86.63502	-0.14376198
1448090711872	-0.091400146484375	9.554595947265625	0.5753936767578125	-6.638226682737802	0	-10.969543	-46.3562	18.82019	155.71716	-86.678535	0.119268
1448090711912	0.825042724609375	9.683135986328125	0.3706817626953125	-6.508288238866311	0	-8.753967	-47.88513	19.650269	155.79376	-86.67939	0.4108949
1448090711953	0.441802978515625	9.647430419921875	-0.5957489013671875	-6.725450133948315	0	-8.92334	-46.694946	19.483948	155.49768	-86.624756	0.45209578
1448090711993	-0.010467529296875	9.497467041015625	1.5703887939453125	-6.481334851825487	0	-8.753967	-47.88513	19.650269	155.86755	-86.14944	0.5767458
1448090712033	0.272796630859375	9.447479248046875	0.3659210205078125	-6.630722656742854	0	-9.947205	-47.71576	18.157959	155.98804	-85.42574	0.5704942
1448090712073	0.075225830078125	9.668853759765625	1.5370635986328125	-6.4478586898547	0	-8.41217	-47.88513	18.986511	156.38116	-84.99888	0.64127946
1448090712113	0.015716552734375	9.587921142578125	1.0419464111328125	-6.543842867382661	0	-8.753967	-48.90442	16.996765	156.71869	-84.75594	0.6648118
1448090712153	0.137115478515625	9.585540771484375	1.1704864501953125	-6.50612386765253	0	-10.287476	-47.37549	18.157959	157.17578	-84.88631	0.7878257
1448090712194	0.594146728515625	9.642669677734375	0.4944610595703125	-6.530737141786867	0	-10.287476	-48.054504	17.825317	156.81464	-85.04596	0.97909725
1448090712234	0.201385498046875	9.587921142578125	0.8253326416015625	-6.548588446578716	0	-10.287476	-48.394775	17.825317	156.33472	-85.11462	1.0052949
1448090712274	0.034759521484375	9.564117431640625	0.9562530517578125	-6.557734043257122	0	-8.92334	-47.71576	17.825317	156.55505	-85.09777	1.0225695
1448090712314	0.158538818359375	9.576019287109375	0.6682281494140625	-6.581264939129143	0	-10.287476	-47.71576	18.157959	156.42664	-85.144684	1.0681764
1448090712354	0.448944091796875	9.606964111328125	1.1276397705078125	-6.4624187887566835	0	-10.287476	-47.37549	17.163086	156.41705	-85.18713	1.2050238
1448090712395	0.777435302734375	9.687896728515625	-0.0244598388671875	-6.5753661501552045	0	-10.287476	-48.394775	19.152832	156.77637	-85.20734	1.3332256
1448090712435	0.991668701171875	9.666473388671875	-0.3815155029296875	-6.600882204105598	0	-10.629272	-48.394775	16.499329	157.401	-85.21032	1.2093952
1448090712475	-0.624603271484375	7.029022216796875	0.1802520751953125	-7.240538617159009	0	-10.969543	-48.394775	17.494202	156.23102	-84.382095	0.42665604
1448090712515	-0.553192138671875	8.159698486328125	-0.5219573974609375	-7.144918398043201	0	-9.776306	-48.225403	17.660522	155.74817	-83.4299	0.3610359
1448090712555	1.039276123046875	9.499847412109375	1.1681060791015625	-6.385017089378395	0	-9.947205	-48.394775	16.499329	157.09686	-82.212166	0.934157
1448090712596	0.437042236328125	11.770721435546875	-0.2767791748046875	-6.352474278913647	0	-9.605408	-50.094604	15.504456	156.07361	-80.190575	0.85334677
1448090712636	-0.048553466796875	5.679351806640625	0.4087677001953125	-7.34904714399892	0	-10.629272	-50.77362	14.178467	156.43927	-76.495995	0.9912517
1448090712676	-0.379425048828125	3.955963134765625	-0.2077484130859375	-7.971173708139832	0	-9.605408	-54.852295	6.881714	156.08875	-69.48618	0.5310027
1448090712716	-0.998321533203125	4.293975830078125	13.674575805664063	-5.68710608660007	0	-7.559204	-55.19104	-0.41503906	155.93903	-57.7522	0.80936766
1448090712756	-3.245391845703125	7.988311767578125	7.9164581298828125	-6.2485980253296916	0	-5.8547974	-52.812195	-14.343262	154.53552	-46.942814	1.34205
1448090712797	2.343719482421875	4.355865478515625	10.482498168945313	-5.638279812145357	0	-5.1727295	-38.879395	-27.609253	151.9596	-40.862568	3.7725194
1448090712837	1.962860107421875	4.998565673828125	8.356826782226563	-5.892746072797738	0	-8.583069	-32.421875	-27.940369	150.77203	-35.73162	4.1564207
1448090712877	-0.377044677734375	0.461578369140625	-6.1182098388671875	NaN	0	-9.436035	-25.115967	-27.111816	150.71124	-30.987537	2.7417202
1448090712917	2.031890869140625	2.520599365234375	-5.1589202880859375	NaN	0	-7.3898315	-22.05658	-27.442932	150.03043	-30.548866	1.7461326
1448090712957	0.596527099609375	-0.302520751953125	0.1040802001953125	-9.175658998121406	0	-7.218933	-20.527649	-25.286865	151.46625	-26.187645	8.330993
1448090712998	3.600555419921875	-0.314422607421875	-10.688522338867188	NaN	0	5.909729	1.3916016	-18.489075	150.29663	-8.580896	-5.2504272
1448090713038	0.927398681640625	0.030731201171875	2.3749542236328125	-7.980926396519544	0	72.74933	54.408264	-38.719177	152.25159	-3.4509742	-14.258299
1448090713078	-0.117584228515625	-0.297760009765625	5.9812164306640625	-7.447389921947853	0	23.472595	-0.47607422	-56.462097	154.13525	-0.41296282	-5.612777
1448090713118	0.241851806640625	1.289947509765625	12.044021606445313	-6.12206191187395	0	-14.21051	-9.143066	-50.326538	154.93536	-9.010908	2.195351
1448090713158	2.500823974609375	-0.364410400390625	-19.57147216796875	NaN	0	-16.426086	-12.710571	-50.160217	154.40558	-6.516961	-3.0481467
1448090713199	0.422760009765625	0.292572021484375	-6.8037567138671875	NaN	0	-14.550781	-10.1623535	-52.98004	154.35712	-7.04568	-3.4988782
1448090713239	-0.755523681640625	0.606781005859375	2.7867584228515625	-8.182403045480532	0	-14.039612	-11.691284	-49.8291	153.89441	-7.077138	-3.9665875
1448090713279	-0.336578369140625	0.056915283203125	10.920486450195313	-6.54457250712723	0	-14.379883	-9.65271	-49.165344	153.39789	-6.9790435	-4.1732535
1448090713319	-0.588897705078125	-0.407257080078125	13.269912719726563	-6.303207653349355	0	-13.015747	-11.012268	-49.49646	153.0072	-6.8265915	-4.255613
1448090713359	-0.477020263671875	0.016448974609375	9.044754028320313	-6.876722402000757	0	-12.8463745	-10.84137	-50.657654	152.6836	-6.7541933	-4.196755
1448090713400	-0.496063232421875	0.030731201171875	9.435134887695313	-6.81163708596495	0	-12.8463745	-11.862183	-48.336792	152.32208	-6.622149	-4.2828813
1448090713440	-0.484161376953125	0.075958251953125	9.477981567382813	-6.794992714449174	0	-13.357544	-9.65271	-49.8291	151.95673	-6.5877433	-4.207887
1448090713480	-0.553192138671875	-0.021636962890625	10.104019165039063	-6.719661376788232	0	-14.039612	-10.671997	-49.49646	151.06186	-6.5329347	-4.167523
1448090713520	-0.143768310546875	0.252105712890625	9.066177368164063	-6.777653851500853	0	-14.379883	-10.671997	-50.49286	150.18472	-6.7520757	-3.7135742
1448090713560	0.020477294921875	0.309234619140625	7.6284332275390625	-6.985581541782903	0	-33.818054	-19.508362	-41.20636	149.47574	-6.398458	-4.1609473
1448090713601	-0.312774658203125	0.166412353515625	7.9735870361328125	-7.00888222805707	0	-39.785767	-21.377563	-43.362427	149.08844	-6.3602605	-4.141276
1448090713641	-0.943572998046875	-0.162078857421875	9.996902465820313	-6.824779983575205	0	-58.54187	-32.93152	-47.34192	148.41507	-6.251877	-4.217589
1448090713681	-0.296112060546875	1.094757080078125	9.694595336914063	-6.567272854365383	0	-57.348633	-36.16028	-40.875244	147.09348	-6.198158	-4.259831
1448090713721	-1.217315673828125	-1.983062744140625	9.556533813476563	-7.2854583150667995	0	-57.348633	-34.46045	-42.201233	146.04877	-6.1985717	-4.297374
1448090713761	-1.264923095703125	-0.688140869140625	12.603408813476563	-6.543113390768577	0	-57.006836	-35.14099	-42.201233	143.94406	-6.483421	-4.290927
1448090713801	0.865509033203125	2.368255615234375	7.2689971923828125	-6.565803517525311	0	-65.87372	-37.519836	-50.823975	140.49127	-7.456511	-5.5197444
1448090713842	-1.336334228515625	-1.107086181640625	11.729812622070313	-6.759241765083392	0	-72.86377	-42.108154	-72.21527	139.24811	-8.147704	-7.8017673
1448090713882	-2.438446044921875	0.311614990234375	9.951675415039063	-7.009307673418531	0	-46.095276	-40.238953	-90.95154	138.14233	-9.900158	-9.475281
1448090713922	-2.586029052734375	0.409210205078125	10.156387329101563	-6.981787000623703	0	61.66687	-2.1759033	-49.165344	134.77411	-13.33259	-10.371048
1448090713962	-0.105682373046875	1.656524658203125	9.299453735351563	-6.51262124771458	0	45.29724	-4.2144775	-13.348389	133.53839	-18.686287	-8.766313
1448090714002	-2.102813720703125	3.732208251953125	10.054031372070313	-6.388497324052375	0	18.527222	-11.521912	-9.535217	132.82367	-22.802885	-9.4058485
1448090714043	-2.590789794921875	4.263031005859375	8.699600219726563	-6.586065660691682	0	-0.22735596	-19.677734	-22.137451	130.58252	-27.89345	-10.1406555
1448090714083	-0.986419677734375	5.496063232421875	10.858596801757813	-5.886365267685452	0	-3.9794922	-20.358276	-24.458313	128.91748	-33.826546	-9.375293
1448090714123	-0.546051025390625	6.819549560546875	9.542251586914063	-5.829697924002866	0	-7.0480347	-24.435425	-25.453186	127.63257	-41.832466	-8.605598
1448090714163	-0.979278564453125	7.440826416015625	3.8174591064453125	-6.6005109560076445	0	-10.287476	-32.081604	-21.640015	126.91852	-51.433697	-8.810886
1448090714203	0.491790771484375	8.145416259765625	3.0057525634765625	-6.394421869431994	0	-10.458374	-35.310364	-18.489075	126.36606	-60.208374	-8.3116455
1448090714244	0.958343505859375	7.336090087890625	8.249710083007813	-5.739150716141895	0	-10.287476	-37.519836	-13.679504	130.01236	-68.39227	-6.5973344
1448090714284	-0.046173095703125	6.472015380859375	0.3992462158203125	-7.194112966352452	0	-11.140442	-40.748596	-1.574707	131.70093	-77.11257	-6.793704
1448090714324	-2.776458740234375	8.526275634765625	-0.6766815185546875	-7.554237823089598	0	-9.776306	-41.088867	4.725647	130.21771	-83.46696	-5.6243997
1448090714364	0.013336181640625	8.426300048828125	3.4199371337890625	-6.3628268709658276	0	-13.868713	-40.748596	6.0531616	133.02069	-86.71267	-3.5838244
1448090714405	0.625091552734375	7.367034912109375	0.9824371337890625	-6.810842399887331	0	-13.528442	-40.068054	13.017273	135.60461	-87.70954	-1.8947394
1448090714445	-0.529388427734375	9.878326416015625	1.0157623291015625	-6.57868289255454	0	-14.21051	-40.068054	12.353516	136.50833	-88.237495	-0.045714457
1448090714485	-0.672210693359375	9.492706298828125	0.6944122314453125	-6.72197557603619	0	-15.914917	-41.427612	12.686157	138.20352	-88.7758	0.47168967
1448090714525	-0.879302978515625	9.921173095703125	1.8607940673828125	-6.5046817416885805	0	-14.550781	-44.487	15.007019	140.64832	-88.779686	-0.8107876
1448090714565	-1.091156005859375	10.290130615234375	0.4087677001953125	-6.706964165007394	0	-12.164307	-46.185303	15.007019	141.55176	-88.96063	-0.12682305
1448090714605	-0.179473876953125	9.547454833984375	0.3421173095703125	-6.690496942236736	0	-12.164307	-46.185303	15.007019	142.10416	-89.0598	0.22896391
1448090714646	1.086883544921875	9.526031494140625	2.2202301025390625	-6.224262056477423	0	-13.1866455	-46.185303	16.001892	144.90662	-89.8355	0.05476105
1448090714686	-0.353240966796875	9.335601806640625	-1.2812957763671875	-7.031520710416265	0	-11.482239	-45.846558	16.001892	146.0653	-90.99805	0.23513503
1448090714726	0.739349365234375	10.592437744140625	0.6634674072265625	-6.343183404122229	0	-10.800171	-46.185303	17.660522	146.89789	-90.43634	1.0385087
1448090714767	1.370147705078125	10.154449462890625	1.7941436767578125	-6.157114989107837	0	-10.969543	-46.3562	17.494202	148.12741	-89.835304	1.2615372
1448090714807	-0.631744384765625	9.309417724609375	-0.0601654052734375	-6.871040779924494	0	-10.629272	-48.735046	16.168213	149.73767	-89.87303	1.1624295
1448090714847	0.827423095703125	9.009490966796875	0.7348785400390625	-6.555170683139634	0	-10.629272	-48.735046	16.168213	150.29831	-89.888306	1.1438305
1448090714887	0.572723388671875	9.795013427734375	0.6039581298828125	-6.494245105625144	0	-8.92334	-48.394775	17.825317	151.41376	-88.95543	1.1862708
1448090714928	0.315643310546875	8.626251220703125	0.3540191650390625	-6.757679913102171	0	-11.31134	-50.094604	16.499329	151.71365	-88.03577	0.37327588
1448090714968	0.694122314453125	8.464385986328125	1.4989776611328125	-6.542019481477894	0	-11.31134	-50.094604	16.499329	151.75348	-87.42914	-0.17186745
1448090715008	0.344207763671875	9.668853759765625	0.7467803955078125	-6.526380202647189	0	-7.901001	-51.11389	15.17334	151.90448	-86.66104	-0.7268199
1448090715048	-0.084259033203125	9.559356689453125	1.1085968017578125	-6.553340948217032	0	-7.901001	-52.47345	14.5095825	152.05872	-86.48574	-0.8179514
1448090715089	0.029998779296875	9.545074462890625	1.0110015869140625	-6.552975124710661	0	-8.41217	-50.942993	14.675903	152.19397	-86.26917	-1.1032907
1448090715129	-0.093780517578125	9.542694091796875	1.0014801025390625	-6.573893134730924	0	-8.071899	-52.30255	15.338135	152.20178	-86.22898	-1.2490888
1448090715169	0.527496337890625	9.678375244140625	1.0205230712890625	-6.456018758883719	0	-7.901001	-51.792908	14.840698	152.30988	-86.23702	-1.2193575
1448090715209	-1.160186767578125	9.280853271484375	0.9491119384765625	-6.794992714449174	0	-7.901001	-52.13318	14.840698	152.54822	-86.239334	-1.3660332
1448090715250	-0.162811279296875	9.554595947265625	1.1419219970703125	-6.561032766828106	0	-8.241272	-52.13318	15.504456	152.26294	-86.160965	-1.3703663
1448090715290	0.406097412109375	9.649810791015625	0.9919586181640625	-6.482766848157226	0	-8.241272	-51.792908	15.504456	152.15399	-86.141335	-0.9836213
1448090715330	0.634613037109375	9.697418212890625	1.0705108642578125	-6.429834963125534	0	-7.3898315	-52.30255	14.675903	152.45776	-86.18243	-0.74089295
1448090715370	0.277557373046875	9.614105224609375	0.9134063720703125	-6.519493526256479	0	-8.071899	-51.963806	14.675903	152.45361	-86.11878	-0.8329529
1448090715410	-0.886444091796875	9.414154052734375	1.0633697509765625	-6.7096531628854095	0	-8.92334	-51.792908	14.178467	152.71191	-86.13348	-0.91680324
1448090715451	0.220428466796875	9.592681884765625	0.9752960205078125	-6.522029042923519	0	-7.901001	-52.812195	14.840698	152.92212	-86.16165	-0.6845678
1448090715491	0.239471435546875	9.702178955078125	1.5013580322265625	-6.42384839474555	0	-7.218933	-50.77362	13.845825	153.09125	-86.16474	-0.32957125
1448090715531	0.601287841796875	9.626007080078125	0.8277130126953125	-6.481692793088758	0	-8.92334	-51.452637	15.17334	153.87488	-85.93619	0.108573616
1448090715572	-0.222320556640625	9.490325927734375	1.0300445556640625	-6.597542517380249	0	-8.41217	-51.963806	15.670776	154.05786	-85.72494	0.25506657
1448090715612	0.425140380859375	9.595062255859375	1.0181427001953125	-6.484199461697301	0	-7.901001	-51.452637	16.168213	154.02502	-85.52326	0.36393204
1448090715652	0.270416259765625	9.611724853515625	1.1228790283203125	-6.4892184811509	0	-9.094238	-50.263977	13.68103	154.44617	-85.40757	0.63656706
1448090715692	0.860748291015625	9.666473388671875	1.1562042236328125	-6.388497324052375	0	-7.559204	-50.094604	14.178467	154.72925	-85.244026	0.7068726
1448090715733	0.051422119140625	9.545074462890625	0.9824371337890625	-6.55407271866625	0	-9.436035	-51.963806	15.007019	155.55768	-85.15889	0.75779057
1448090715773	0.563201904296875	9.626007080078125	1.1895294189453125	-6.433361436939226	0	-8.92334	-52.13318	16.830444	155.91931	-85.06985	0.6129776
1448090715813	-0.629364013671875	9.354644775390625	1.1704864501953125	-6.660846161583194	0	-8.583069	-51.11389	15.504456	156.18561	-84.88646	0.32079265
1448090715853	-0.008087158203125	9.533172607421875	1.1181182861328125	-6.544207666856795	0	-8.92334	-51.792908	15.17334	156.16553	-84.5207	0.43738738
1448090715894	0.139495849609375	9.530792236328125	1.1252593994140625	-6.520942153334957	0	-9.265137	-51.452637	14.5095825	156.1394	-84.47784	0.41883782
1448090715934	0.153778076171875	9.583160400390625	1.0586090087890625	-6.520942153334957	0	-9.265137	-52.47345	13.514709	155.99133	-84.44592	0.44105786
1448090715974	0.182342529296875	9.556976318359375	1.1871490478515625	-6.494963817672363	0	-9.265137	-52.47345	13.514709	156.23755	-84.42174	0.5671556
1448090716014	0.022857666015625	9.535552978515625	1.3490142822265625	-6.503960914850396	0	-7.3898315	-52.30255	14.012146	156.25519	-84.29898	0.5737498
1448090716055	0.182342529296875	9.537933349609375	1.3109283447265625	-6.525291871794639	0	-8.41217	-51.963806	15.007019	156.15039	-84.14769	0.51720005
1448090716095	0.253753662109375	9.561737060546875	1.3799591064453125	-6.460639774728103	0	-9.436035	-52.30255	15.007019	156.34155	-84.07392	0.5728234
1448090716135	-0.286590576171875	9.466522216796875	1.2537994384765625	-6.576471352546223	0	-8.583069	-52.812195	13.845825	156.5116	-83.99071	0.5807997
1448090716175	0.294219970703125	9.587921142578125	1.2252349853515625	-6.47382696562865	0	-9.265137	-51.792908	12.850952	156.49146	-83.913414	0.56180406
1448090716216	0.060943603515625	9.516510009765625	0.8967437744140625	-6.570213529305359	0	-9.094238	-51.623535	12.850952	156.58295	-83.85932	0.5829949
1448090716256	0.239471435546875	9.549835205078125	1.2942657470703125	-6.477400037892689	0	-9.265137	-51.792908	14.840698	156.39929	-83.816895	0.51971376
1448090716296	0.099029541015625	9.473663330078125	0.8419952392578125	-6.579420409343236	0	-9.094238	-53.32184	13.68103	156.61597	-83.693344	0.5351087
1448090716337	0.099029541015625	9.585540771484375	1.1681060791015625	-6.495323232194594	0	-9.094238	-53.32184	13.68103	156.60864	-83.69548	0.54683155
1448090716378	0.182342529296875	9.506988525390625	1.0300445556640625	-6.53255424431002	0	-8.753967	-52.642822	14.012146	156.71399	-83.26072	0.6059045
1448090716418	-0.027130126953125	9.299896240234375	1.3466339111328125	-6.547857907656074	0	-8.241272	-52.13318	13.183594	156.75037	-82.90386	0.6123219
1448090716459	0.344207763671875	9.561737060546875	1.4347076416015625	-6.439011476171663	0	-8.241272	-52.13318	13.183594	156.72992	-82.605385	0.5815084
1448090716499	0.510833740234375	9.571258544921875	1.3609161376953125	-6.42384839474555	0	-8.92334	-54.171753	11.856079	156.72144	-81.31399	0.599541
1448090716539	-0.055694580078125	7.393218994140625	0.5730133056640625	-6.994032183977324	0	-7.901001	-52.812195	11.856079	156.69354	-79.67692	0.7456805
1448090716579	0.160919189453125	5.881683349609375	0.6396636962890625	-7.221592024122254	0	-7.901001	-53.833008	9.202576	156.60852	-75.82668	0.76155007
1448090716620	0.139495849609375	2.899078369140625	2.5415802001953125	-7.444364952646474	0	-8.41217	-56.721497	5.0582886	156.318	-68.11935	0.7624884
1448090716660	0.039520263671875	1.937408447265625	8.780532836914063	-6.52674305984978	0	-6.536865	-57.569885	-16.664124	156.33173	-55.935566	0.8816662
1448090716700	0.446563720703125	4.146392822265625	12.386795043945313	-5.685950586750425	0	-1.0803223	-52.47345	-32.58362	156.38196	-43.707817	1.1017683
1448090716741	0.639373779296875	-0.678619384765625	2.4749298095703125	-8.245932128830235	0	8.808899	-38.539124	-45.84961	157.49432	-35.550987	3.1341374
1448090716781	-0.788848876953125	-0.295379638671875	-5.6945037841796875	NaN	0	-5.1727295	-16.448975	-35.23712	158.09778	-29.241022	6.543405
1448090716821	0.917877197265625	-6.398651123046875	0.9681549072265625	NaN	0	-10.800171	-17.29889	-31.091309	155.9079	-14.828973	13.104982
1448090716861	1.520111083984375	-0.342987060546875	-3.6807098388671875	NaN	0	-14.379883	-13.731384	-33.247375	150.19473	-0.013495952	15.115622
1448090716901	0.855987548828125	0.778167724609375	0.6634674072265625	-8.290808892800838	0	-23.075867	-2.6855469	-36.39679	149.6607	-1.4650155	24.083635
1448090716942	-0.146148681640625	-0.123992919921875	-13.083175659179688	NaN	0	-25.12207	-3.3660889	-36.72943	149.08698	-1.0474898	14.656764
1448090716982	-1.812408447265625	0.268768310546875	-15.306442260742188	NaN	0	-18.98346	-3.0258179	-39.71405	148.93512	-0.59468544	14.203015
1448090717022	0.489410400390625	-0.104949951171875	9.323257446289063	-6.6908789124333	0	-20.178223	-1.4968872	-39.88037	148.7091	-0.86621726	14.644401
1448090717063	0.425140380859375	-0.131134033203125	8.930496215820313	-6.7694133802025656	0	-20.347595	-1.3259888	-40.045166	148.0484	-0.56426233	13.703454
1448090717103	0.344207763671875	-0.328704833984375	9.563674926757813	-6.7115753060039545	0	-18.814087	-3.5354614	-39.88037	147.53656	-0.56636244	13.5535
1448090717143	0.303741455078125	-0.302520751953125	9.646987915039063	-6.700443433089042	0	-19.496155	-2.1759033	-40.542603	147.03622	-0.5426094	13.433074
1448090717183	0.356109619140625	-0.297760009765625	9.725540161132813	-6.678679001875556	0	-18.301392	-1.3259888	-39.71405	146.512	-0.532616	13.314049
1448090717223	0.365631103515625	-0.292999267578125	9.613662719726563	-6.694318753765325	0	-17.96112	-1.3259888	-39.050293	146.01251	-0.5168697	13.197761
1448090717264	0.308502197265625	-0.335845947265625	9.639846801757813	-6.70619630825955	0	-19.154358	-1.1566162	-38.22174	145.50192	-0.5117989	13.08314
1448090717304	0.308502197265625	-0.312042236328125	9.706497192382813	-6.695466212715561	0	-19.154358	-1.1566162	-38.22174	145.2301	-0.50455135	13.025336
1448090717344	0.225189208984375	-0.300140380859375	9.544631958007813	-6.729315355035739	0	-18.132019	-1.8356323	-39.216614	143.50708	-0.4972724	12.852467
1448090717384	0.527496337890625	0.068817138671875	9.394668579101563	-6.645748523631003	0	-19.836426	-0.47607422	-40.542603	143.224	-0.4845236	12.728574
1448090717425	1.048797607421875	-0.550079345703125	10.239700317382813	-6.529647363921541	0	-18.301392	-2.6855469	-39.38141	142.59863	-0.48359284	12.541602
1448090717465	-2.455108642578125	-0.221588134765625	16.519119262695313	-6.08605938264994	0	-17.449951	-2.8564453	-39.54773	142.37643	-0.78246087	11.417003
1448090717505	-1.931427001953125	0.682952880859375	16.054946899414063	-5.958682020323157	0	-16.937256	-3.0258179	-39.050293	141.03912	-1.9067613	10.321302
1448090717545	-0.343719482421875	1.523223876953125	11.913101196289063	-6.18822942875936	0	-8.41217	-8.802795	-40.377808	135.48346	-12.824819	9.018813
1448090717586	0.796478271484375	5.793609619140625	9.092361450195313	-5.846492761449468	0	-7.7301025	-15.260315	-33.744812	133.89014	-24.183506	8.560413
1448090717626	1.508209228515625	6.062591552734375	12.967605590820313	-5.2746681412812135	0	-8.41217	-20.018005	-28.76892	133.22797	-29.988121	7.7867813
1448090717666	-1.241119384765625	6.641021728515625	0.1112213134765625	-7.459021746303957	0	-9.605408	-32.081604	-21.640015	129.60352	-49.104145	3.1061409
1448090717706	-1.241119384765625	6.641021728515625	0.1112213134765625	-7.459021746303957	0	-9.605408	-32.081604	-21.640015	129.60352	-49.104145	3.1061409
1448090717747	-1.241119384765625	6.641021728515625	0.1112213134765625	-7.459021746303957	0	-9.605408	-32.081604	-21.640015	129.60352	-49.104145	3.1061409
1448090717787	-2.881195068359375	9.007110595703125	-6.0872650146484375	-9.610002663559975	0	-14.550781	-41.767883	3.0685425	131.11188	-80.714355	6.6008625
1448090717827	0.318023681640625	8.312042236328125	-1.3408050537109375	-7.106736880458971	0	-14.379883	-42.277527	10.53009	131.59296	-87.74901	6.787149
1448090717868	-0.412750244140625	9.226104736328125	2.3797149658203125	-6.460995501855036	0	-14.21051	-40.408325	15.007019	132.55182	-89.4513	6.2339506
1448090717908	-3.152557373046875	8.890472412109375	-0.3529510498046875	-7.486047481900525	0	-11.31134	-41.937256	18.489075	136.60065	-90.749214	4.769675
1448090717948	-0.917388916015625	9.975921630859375	0.5301666259765625	-6.710037496057876	0	-10.118103	-43.12744	18.322754	138.01859	-90.80682	5.272306
1448090717989	-2.202789306640625	8.650054931640625	0.9062652587890625	-7.094860542790096	0	-9.436035	-42.4469	18.655396	138.54547	-92.432556	5.3737726
1448090718030	-2.785980224609375	9.057098388671875	0.7943878173828125	-7.148498049087411	0	-10.800171	-43.467712	20.976257	140.7435	-94.12275	6.0397944
1448090718073	-1.579132080078125	10.390106201171875	-0.0911102294921875	-6.853658434103112	0	-8.92334	-44.656372	20.47882	141.97168	-93.861275	6.788252
1448090718113	0.120452880859375	9.573638916015625	-0.8195037841796875	-6.8275753252624245	0	-10.458374	-44.14673	19.981384	143.29779	-93.58592	7.525726
1448090718154	0.356109619140625	9.618865966796875	0.5254058837890625	-6.566170789273963	0	-11.651611	-44.656372	20.147705	144.45053	-93.098	8.160981
1448090718194	-0.798370361328125	9.518890380859375	-1.4026947021484375	-7.101452071072117	0	-12.164307	-43.806458	21.640015	144.90155	-92.65385	8.736919
1448090718234	0.525115966796875	9.626007080078125	-0.2172698974609375	-6.654798427975824	0	-11.651611	-44.996643	20.147705	145.60303	-92.16716	9.225993
1448090718274	0.606048583984375	9.904510498046875	-0.8742523193359375	-6.702359873544684	0	-11.993408	-44.656372	20.147705	146.89551	-91.7839	9.352354
1448090718315	0.187103271484375	9.630767822265625	0.3064117431640625	-6.6247321779630655	0	-11.482239	-45.506287	20.645142	148.48895	-91.22606	9.488851
1448090718355	0.318023681640625	9.630767822265625	0.2707061767578125	-6.609805092492785	0	-10.118103	-45.846558	19.981384	149.914	-90.76283	9.465717
1448090718395	-0.691253662109375	9.433197021484375	0.0897979736328125	-6.83477542021609	0	-9.947205	-48.054504	19.815063	151.13416	-90.411064	9.361361
1448090718435	0.451324462890625	9.654571533203125	0.6444244384765625	-6.5278318723992825	0	-10.118103	-47.20459	19.981384	152.15015	-90.125885	9.283259
1448090718476	0.986907958984375	9.733123779296875	0.4040069580078125	-6.471328092600385	0	-10.629272	-47.37549	19.152832	152.7981	-89.94951	9.139456
1448090718516	-2.045684814453125	9.706939697265625	0.7967681884765625	-6.898331946451795	0	-10.118103	-49.24469	18.986511	153.34625	-89.9942	8.690746
1448090718556	0.765533447265625	9.818817138671875	0.0207672119140625	-6.550050016067377	0	-7.7301025	-47.54486	18.986511	153.73572	-90.152626	8.390415
1448090718596	-0.100921630859375	9.535552978515625	0.3897247314453125	-6.696996816632737	0	-8.41217	-48.564148	19.317627	154.2312	-90.211815	8.341891
1448090718637	0.613189697265625	9.723602294921875	-0.3148651123046875	-6.640857294112041	0	-8.753967	-49.24469	17.660522	154.67291	-90.36135	8.249752
1448090718677	0.006195068359375	9.621246337890625	0.1397857666015625	-6.652910889627385	0	-8.92334	-48.394775	19.815063	154.63696	-90.316536	8.241599
1448090718717	-0.022369384765625	9.587921142578125	0.2135772705078125	-6.679440101894322	0	-8.583069	-48.394775	21.142578	155.15277	-90.211975	8.084061
1448090718758	0.113311767578125	9.633148193359375	0.2302398681640625	-6.648008568823507	0	-8.41217	-47.54486	18.655396	155.5481	-90.19697	8.00491
1448090718798	0.113311767578125	9.571258544921875	0.2707061767578125	-6.651401671961362	0	-8.583069	-49.07379	18.82019	155.724	-90.19078	7.9610634
1448090718838	0.103790283203125	9.590301513671875	0.2278594970703125	-6.656687097403276	0	-7.559204	-49.07379	18.82019	156.32117	-90.17595	7.8333783
1448090718878	0.110931396484375	9.609344482421875	0.2159576416015625	-6.654420829884853	0	-8.92334	-48.394775	18.82019	156.67297	-90.1655	7.7468076
1448090718919	0.110931396484375	9.602203369140625	0.2254791259765625	-6.654043277020766	0	-9.776306	-49.24469	18.986511	156.81665	-90.161194	7.7038546
1448090718959	0.103790283203125	9.597442626953125	0.2230987548828125	-6.656309272933836	0	-9.094238	-47.88513	18.655396	157.2063	-90.14466	7.5793324
1448090718999	0.068084716796875	9.649810791015625	0.2659454345703125	-6.64687834416023	0	-7.0480347	-47.20459	21.97113	157.53955	-90.13579	7.4991474
1448090719039	0.079986572265625	9.614105224609375	0.2707061767578125	-6.649893175850375	0	-9.436035	-48.225403	19.650269	156.99603	-90.02594	7.00504
1448090719080	0.075225830078125	9.614105224609375	0.2540435791015625	-6.653288306908265	0	-9.094238	-48.564148	20.3125	156.44733	-89.91267	6.554049
1448090719120	0.096649169921875	9.587921142578125	0.2897491455078125	-6.648385400260486	0	-9.265137	-47.37549	18.82019	155.93726	-89.82674	6.123648
1448090719160	0.094268798828125	9.628387451171875	0.2373809814453125	-6.650647333776168	0	-9.094238	-46.185303	20.645142	155.7127	-89.777374	5.927953
1448090719200	0.096649169921875	9.611724853515625	0.2159576416015625	-6.656309272933836	0	-9.094238	-48.564148	18.986511	155.14429	-89.65593	5.3774314
1448090719240	0.106170654296875	9.640289306640625	0.3040313720703125	-6.63634901103906	0	-10.118103	-47.20459	19.317627	154.77295	-89.591156	5.042895
1448090719281	0.099029541015625	9.640289306640625	0.2659454345703125	-6.643490093242638	0	-9.265137	-48.054504	19.152832	154.44751	-89.51127	4.734967
1448090719321	0.094268798828125	9.618865966796875	0.2540435791015625	-6.649516164444384	0	-9.094238	-47.88513	19.981384	154.17969	-89.45079	4.442588
1448090719361	0.132354736328125	9.635528564453125	0.1540679931640625	-6.656687097403276	0	-8.071899	-49.923706	18.655396	153.99518	-89.38712	4.164661
1448090719401	0.084747314453125	9.630767822265625	0.2611846923828125	-6.648008568823507	0	-8.583069	-48.735046	18.82019	153.8855	-89.36938	3.9235947
1448090719441	0.120452880859375	9.637908935546875	0.2278594970703125	-6.64650169243478	0	-8.41217	-47.54486	20.3125	153.73438	-89.320915	3.6857295
1448090719482	0.115692138671875	9.609344482421875	0.2111968994140625	-6.654420829884853	0	-8.92334	-47.71576	19.483948	153.6405	-89.27587	3.4693491
1448090719522	0.129974365234375	9.592681884765625	0.1945343017578125	-6.657442882332193	0	-8.583069	-49.07379	19.152832	153.5033	-89.248474	3.2738554
1448090719562	0.082366943359375	9.611724853515625	0.2397613525390625	-6.654798427975824	0	-8.583069	-49.07379	20.147705	153.44183	-89.22088	3.0947957
1448090719602	0.103790283203125	9.633148193359375	0.2897491455078125	-6.640105467860348	0	-10.287476	-49.07379	20.809937	153.36847	-89.18597	2.9162178
1448090719643	0.089508056640625	9.626007080078125	0.2445220947265625	-6.650647333776168	0	-7.3898315	-48.90442	19.981384	153.31213	-89.14798	2.7561655
1448090719683	0.122833251953125	9.616485595703125	0.2207183837890625	-6.650647333776168	0	-8.241272	-47.035217	20.47882	153.39032	-89.111664	2.6023242
1448090719723	0.103790283203125	9.609344482421875	0.2254791259765625	-6.654043277020766	0	-8.41217	-49.24469	18.986511	153.3982	-89.081375	2.4565318
1448090719763	0.099029541015625	9.611724853515625	0.2849884033203125	-6.644995534249807	0	-9.947205	-49.07379	21.142578	153.43335	-89.05714	2.3242998
1448090719804	0.127593994140625	9.606964111328125	0.2230987548828125	-6.651024480328261	0	-8.071899	-47.88513	19.981384	153.43005	-89.0212	2.2062385
1448090719844	0.096649169921875	9.595062255859375	0.2397613525390625	-6.655176071309937	0	-8.92334	-47.37549	18.489075	153.43317	-89.0122	2.0932083
1448090719884	0.077606201171875	9.652191162109375	0.1992950439453125	-6.655553759903457	0	-9.605408	-48.394775	18.82019	153.43884	-88.99387	1.9891374
1448090719925	0.103790283203125	9.616485595703125	0.2611846923828125	-6.6472550407894575	0	-9.947205	-49.754333	19.815063	153.36267	-88.98365	1.8820318
1448090719965	0.082366943359375	9.583160400390625	0.3135528564453125	-6.647631782338525	0	-8.583069	-49.414063	19.483948	153.4013	-88.9489	1.7980359
1448090720006	0.077606201171875	9.626007080078125	0.2564239501953125	-6.650647333776168	0	-8.92334	-47.71576	20.47882	153.42352	-88.91682	1.7052994
1448090720046	0.089508056640625	9.623626708984375	0.1754913330078125	-6.661981406492544	0	-7.7301025	-48.90442	19.317627	153.5296	-88.88047	1.5846874
1448090720086	0.106170654296875	9.633148193359375	0.2326202392578125	-6.648762276665556	0	-7.7301025	-48.90442	19.317627	153.56287	-88.88754	1.544327
1448090720126	0.068084716796875	9.633148193359375	0.1635894775390625	-6.665768519691749	0	-10.287476	-49.414063	18.489075	153.65137	-88.84091	1.4426088
1448090720167	0.087127685546875	9.621246337890625	0.2849884033203125	-6.645372006520597	0	-9.265137	-49.414063	18.489075	153.594	-88.839386	1.3700113
1448090720207	0.115692138671875	9.616485595703125	0.2088165283203125	-6.654798427975824	0	-9.265137	-49.414063	18.489075	153.5929	-88.82497	1.3361831
1448090720247	0.108551025390625	9.587921142578125	0.2802276611328125	-6.648008568823507	0	-8.241272	-48.735046	18.82019	153.6596	-88.81064	1.2506225
1448090720287	0.091888427734375	9.616485595703125	0.2064361572265625	-6.657820842824307	0	-9.947205	-48.394775	19.483948	153.70618	-88.7982	1.225579
1448090720327	0.094268798828125	9.604583740234375	0.2588043212890625	-6.651024480328261	0	-8.753967	-48.225403	19.650269	153.67273	-88.79724	1.1624601
1448090720368	0.089508056640625	9.633148193359375	0.2611846923828125	-6.64687834416023	0	-8.92334	-48.394775	19.815063	153.74872	-88.77907	1.1150894
1448090720408	0.118072509765625	9.628387451171875	0.2683258056640625	-6.6419853683897685	0	-10.287476	-48.054504	19.152832	153.7976	-88.76388	1.0649554
1448090720448	0.146636962890625	9.604583740234375	0.2445220947265625	-6.644995534249807	0	-7.559204	-50.094604	19.483948	153.77344	-88.74232	1.023853
1448090720489	0.134735107421875	9.618865966796875	0.2849884033203125	-6.638226682737802	0	-9.605408	-47.71576	19.152832	153.88373	-88.733185	1.0012345
1448090720529	0.094268798828125	9.628387451171875	0.2897491455078125	-6.6423614825194015	0	-8.241272	-48.394775	19.815063	153.95276	-88.724655	0.9798862
1448090720569	0.070465087890625	9.606964111328125	0.2111968994140625	-6.661981406492544	0	-8.071899	-47.88513	19.650269	154.07056	-88.71031	0.9438835
1448090720609	0.091888427734375	9.618865966796875	0.2659454345703125	-6.648008568823507	0	-9.605408	-47.71576	20.809937	154.14233	-88.71465	0.908589
1448090720650	0.060943603515625	9.621246337890625	0.2945098876953125	-6.648008568823507	0	-9.436035	-48.225403	19.650269	154.19861	-88.71064	0.8789209
1448090720690	0.110931396484375	9.642669677734375	0.2730865478515625	-6.640105467860348	0	-8.583069	-48.735046	20.809937	154.21838	-88.69657	0.83922726
1448090720730	0.063323974609375	9.623626708984375	0.2135772705078125	-6.660089559193937	0	-7.901001	-48.054504	19.815063	154.36938	-88.68424	0.82121664
1448090720770	0.096649169921875	9.635528564453125	0.2754669189453125	-6.643113844929882	0	-8.071899	-47.88513	20.3125	154.43542	-88.68558	0.78898084
1448090720810	0.099029541015625	9.616485595703125	0.2207183837890625	-6.654420829884853	0	-9.436035	-48.90442	20.976257	154.58203	-88.67121	0.767311
1448090720851	0.075225830078125	9.618865966796875	0.2588043212890625	-6.651778908691641	0	-8.753967	-50.263977	19.650269	154.65149	-88.66645	0.7441214
1448090720891	0.084747314453125	9.609344482421875	0.2778472900390625	-6.648762276665556	0	-8.583069	-48.054504	18.489075	154.68683	-88.65525	0.71547234
1448090720931	0.099029541015625	9.614105224609375	0.2659454345703125	-6.647631782338525	0	-7.559204	-49.07379	20.147705	154.72443	-88.65003	0.6905224
1448090720971	0.108551025390625	9.585540771484375	0.2635650634765625	-6.651024480328261	0	-9.605408	-47.71576	19.815063	154.82031	-88.640015	0.67221105
1448090721012	0.089508056640625	9.666473388671875	0.2540435791015625	-6.642737641360791	0	-9.265137	-48.735046	19.815063	154.79712	-88.63771	0.6563981
1448090721052	0.096649169921875	9.616485595703125	0.2016754150390625	-6.657820842824307	0	-9.776306	-48.564148	18.322754	154.82172	-88.63675	0.63092077
1448090721092	0.084747314453125	9.621246337890625	0.2897491455078125	-6.644995534249807	0	-8.753967	-49.58496	20.3125	154.84955	-88.63674	0.61563474
1448090721132	0.120452880859375	9.585540771484375	0.2469024658203125	-6.651778908691641	0	-10.118103	-48.225403	19.317627	154.9397	-88.62687	0.6061504
1448090721173	0.096649169921875	9.621246337890625	0.2183380126953125	-6.654420829884853	0	-7.901001	-48.054504	19.483948	154.92621	-88.62543	0.5992448
1448090721213	0.084747314453125	9.637908935546875	0.1945343017578125	-6.657442882332193	0	-9.776306	-48.225403	19.317627	154.97107	-88.62666	0.58656037
1448090721255	0.122833251953125	9.614105224609375	0.1992950439453125	-6.654420829884853	0	-7.901001	-46.694946	19.152832	154.94702	-88.62514	0.5732999
1448090721295	0.096649169921875	9.642669677734375	0.2207183837890625	-6.651401671961362	0	-9.776306	-47.54486	18.655396	154.92102	-88.65077	0.5716008
1448090721336	0.077606201171875	9.623626708984375	0.2588043212890625	-6.650647333776168	0	-8.753967	-49.24469	19.317627	154.88391	-88.67008	0.5612132
1448090721376	0.089508056640625	9.606964111328125	0.2492828369140625	-6.652910889627385	0	-8.241272	-48.394775	20.809937	154.86389	-88.65979	0.54596573
1448090721416	0.134735107421875	9.599822998046875	0.2778472900390625	-6.6423614825194015	0	-9.947205	-48.735046	20.147705	154.84619	-88.648766	0.53160894
1448090721456	0.103790283203125	9.626007080078125	0.2945098876953125	-6.640481358670121	0	-8.241272	-49.07379	18.157959	154.86761	-88.642006	0.53966385
1448090721498	0.082366943359375	9.614105224609375	0.2730865478515625	-6.649139198054817	0	-8.753967	-48.225403	18.655396	154.8628	-88.638885	0.53569275
1448090721538	0.082366943359375	9.606964111328125	0.2897491455078125	-6.6423614825194015	0	-9.265137	-49.07379	20.147705	154.85608	-88.633446	0.5296793
1448090721578	0.041900634765625	9.626007080078125	0.2183380126953125	-6.662359912548174	0	-10.118103	-48.90442	19.650269	154.8429	-88.63449	0.52325696
1448090721619	0.089508056640625	9.611724853515625	0.2159576416015625	-6.657442882332193	0	-8.41217	-49.24469	19.981384	154.80243	-88.63737	0.5034477
1448090721659	0.089508056640625	9.609344482421875	0.2754669189453125	-6.648385400260486	0	-8.92334	-47.37549	20.147705	154.77808	-88.64826	0.49581304
1448090721699	0.079986572265625	9.602203369140625	0.2492828369140625	-6.655176071309937	0	-8.92334	-47.37549	20.147705	154.7746	-88.64295	0.49151063
1448090721740	0.115692138671875	9.640289306640625	0.2207183837890625	-6.648008568823507	0	-7.901001	-47.37549	19.152832	154.74182	-88.65141	0.4783032
1448090721781	0.077606201171875	9.635528564453125	0.3135528564453125	-6.640105467860348	0	-9.605408	-48.735046	20.47882	154.7442	-88.644226	0.47618744
1448090721821	0.099029541015625	9.606964111328125	0.2492828369140625	-6.651401671961362	0	-9.605408	-48.054504	19.152832	154.75	-88.62212	0.4689259
1448090721861	0.065704345703125	9.618865966796875	0.1707305908203125	-6.6672846441747335	0	-11.82251	-48.225403	18.986511	154.73987	-88.62152	0.4633215
1448090721901	0.106170654296875	9.640289306640625	0.2492828369140625	-6.644995534249807	0	-9.947205	-48.054504	19.815063	154.72217	-88.635376	0.46052274
1448090721941	0.101409912109375	9.606964111328125	0.2421417236328125	-6.652156190535276	0	-8.753967	-48.90442	20.645142	154.72711	-88.63529	0.46309102
1448090721982	0.110931396484375	9.614105224609375	0.2088165283203125	-6.654798427975824	0	-8.41217	-48.564148	19.650269	154.72565	-88.63492	0.4621305
1448090722022	0.125213623046875	9.640289306640625	0.2588043212890625	-6.640481358670121	0	-8.92334	-48.735046	19.815063	154.7179	-88.640144	0.46052197
1448090722063	0.065704345703125	9.618865966796875	0.1778717041015625	-6.666147482192803	0	-8.071899	-47.88513	20.645142	154.69989	-88.642235	0.45206246
1448090722103	0.101409912109375	9.606964111328125	0.1945343017578125	-6.6597113262151595	0	-8.41217	-47.54486	19.317627	154.67786	-88.64589	0.44224888
1448090722143	0.094268798828125	9.611724853515625	0.1945343017578125	-6.660089559193937	0	-7.901001	-47.035217	19.815063	154.67664	-88.64794	0.4425682
1448090722183	0.051422119140625	9.592681884765625	0.2516632080078125	-6.660846161583194	0	-9.605408	-48.735046	18.82019	154.65796	-88.66132	0.43905994
1448090722224	0.096649169921875	9.599822998046875	0.2302398681640625	-6.655931493772661	0	-8.071899	-47.54486	19.981384	154.6416	-88.66362	0.43159518
1448090722264	0.075225830078125	9.614105224609375	0.2040557861328125	-6.661224531026492	0	-8.41217	-49.24469	19.650269	154.65234	-88.65826	0.43470392
1448090722304	0.091888427734375	9.633148193359375	0.2707061767578125	-6.644995534249807	0	-9.436035	-48.90442	18.986511	154.63574	-88.66531	0.4293156
1448090722345	0.084747314453125	9.578399658203125	0.3206939697265625	-6.64687834416023	0	-8.241272	-47.71576	20.47882	154.64276	-88.65756	0.4293531
1448090722385	0.075225830078125	9.568878173828125	0.2469024658203125	-6.661602945990797	0	-8.92334	-46.694946	18.82019	154.65161	-88.645676	0.42838752
