timestamp	accel_x	accel_y	accel_z	accel_mag	temperature	mag_x	mag_y	mag_z	azimuth	pitch	roll
1448091787535	-3.554840087890625	3.760772705078125	6.6858062744140625	-7.181387838744921	0	-5.683899	-15.260315	-33.081055	81.57129	-26.885769	-22.406654
1448091787576	-3.923797607421875	4.094024658203125	7.2785186767578125	-7.077360961817551	0	-5.001831	-15.939331	-33.41217	82.43317	-27.075657	-22.609835
1448091787617	-4.090423583984375	4.089263916015625	6.9143218994140625	-7.1773106984119615	0	-5.343628	-14.920044	-33.081055	83.050964	-27.035303	-22.629435
1448091787657	-4.264190673828125	3.922637939453125	8.075942993164063	-7.025522824014216	0	-5.343628	-14.920044	-33.081055	84.506836	-26.382391	-22.101852
1448091787697	-2.638397216796875	3.803619384765625	10.194473266601563	-6.436185272615503	0	-6.025696	-14.920044	-31.755066	87.620605	-22.645044	-19.753508
1448091787737	-3.431060791015625	2.727691650390625	9.687454223632813	-6.809253659817101	0	-7.7301025	-14.579773	-32.417297	88.12726	-21.925896	-19.822811
1448091787777	-4.118988037109375	3.456085205078125	7.2951812744140625	-7.231278963239182	0	-7.7301025	-13.900757	-33.744812	88.369385	-21.46342	-21.572424
1448091787817	-4.637908935546875	2.513458251953125	7.4165802001953125	-7.506137108188536	0	-5.343628	-13.220215	-34.407043	89.084625	-20.639988	-22.396288
1448091787858	-3.885711669921875	3.268035888671875	8.104507446289063	-7.070392466745429	0	-4.66156	-12.200928	-33.081055	90.37155	-20.020525	-21.656971
1448091787898	-4.328460693359375	2.530120849609375	9.111404418945313	-7.102332155426295	0	-5.683899	-13.900757	-33.744812	92.01361	-19.467533	-21.13579
1448091787938	-3.730987548828125	2.630096435546875	7.7331695556640625	-7.231278963239182	0	-5.5145264	-13.731384	-33.909607	93.95865	-18.922573	-20.436804
1448091787978	-3.504852294921875	2.334930419921875	7.8593292236328125	-7.220211137390045	0	-5.8547974	-13.731384	-33.57849	95.60324	-18.65599	-19.392756
1448091788019	-3.845245361328125	1.777923583984375	7.4713287353515625	-7.481947992062508	0	-7.901001	-14.070129	-33.909607	96.31287	-17.747082	-17.666832
1448091788059	-2.059967041015625	0.578216552734375	5.3670806884765625	-7.835475904415119	0	-7.3898315	-14.241028	-33.081055	95.83124	-16.259163	-13.653642
1448091788099	0.610809326171875	6.153045654296875	10.313491821289063	-5.674125341667802	0	-13.357544	-11.352539	-33.909607	95.709595	-13.496741	-5.7626953
1448091788139	-0.662689208984375	2.018341064453125	12.210647583007813	-6.12335422507857	0	-17.619324	-8.123779	-32.417297	95.84421	-10.753015	1.0420306
1448091788179	-3.942840576171875	2.570587158203125	11.184707641601563	-6.674116285176758	0	-20.007324	-6.42395	-31.422424	94.526276	-9.587235	1.2425896
1448091788220	1.762908935546875	1.777923583984375	9.739822387695313	-6.162336712691224	0	-19.496155	-5.9143066	-31.91986	91.51877	-10.134101	0.42032254
1448091788260	-2.174224853515625	2.682464599609375	9.846939086914063	-6.588653631116918	0	-19.496155	-4.8950195	-31.25763	90.069214	-10.64447	-2.1486845
1448091788300	-1.312530517578125	1.699371337890625	5.3718414306640625	-7.406874546749865	0	-19.325256	-6.42395	-33.41217	88.09662	-11.22816	-6.707554
1448091788340	0.327545166015625	1.846954345703125	10.004043579101563	-6.316823060019406	0	-16.085815	-4.8950195	-34.573364	86.59314	-10.340936	-8.4827
1448091788380	-1.581512451171875	1.996917724609375	10.880020141601563	-6.445733234560009	0	-15.914917	-3.3660889	-34.075928	86.58563	-9.650223	-8.62059
1448091788421	-0.336578369140625	2.037384033203125	7.1571197509765625	-6.830373292398735	0	-13.697815	-4.5547485	-34.573364	86.246155	-10.222321	-9.434662
1448091788461	0.315643310546875	1.613677978515625	8.818618774414063	-6.52819489027415	0	-14.039612	-4.2144775	-34.573364	86.02756	-9.673212	-8.731997
1448091788501	-1.019744873046875	2.177825927734375	11.025222778320313	-6.316141028316217	0	-16.596985	-3.0258179	-36.39679	86.581085	-8.593913	-7.6123486
1448091788541	-0.646026611328125	2.349212646484375	9.789810180664063	-6.4164678173527925	0	-14.039612	-3.1951904	-34.24225	86.99567	-8.65383	-7.7122426
1448091788581	-1.100677490234375	2.323028564453125	8.954299926757813	-6.616513637379613	0	-15.061951	-4.5547485	-34.90448	87.29248	-9.077573	-9.025838
1448091788622	-2.409881591796875	2.437286376953125	10.572952270507813	-6.5507810468541	0	-12.675476	-3.8757324	-34.90448	87.95532	-8.991347	-10.005796
1448091788662	-1.500579833984375	1.987396240234375	9.768386840820313	-6.640857294112041	0	-13.1866455	-4.724121	-33.744812	88.678955	-9.46133	-10.352271
1448091788702	-1.405364990234375	1.620819091796875	9.213760375976563	-6.735897396760953	0	-14.21051	-4.724121	-34.075928	89.1582	-10.315031	-10.935146
1448091788742	-2.095672607421875	1.701751708984375	8.892410278320313	-6.891383133301604	0	-13.528442	-5.064392	-35.0708	89.539795	-11.23514	-11.940715
1448091788782	-1.055450439453125	1.620819091796875	9.263748168945313	-6.671457766976262	0	-12.504578	-7.4432373	-35.73456	90.621704	-11.874847	-11.604167
1448091788823	-1.738616943359375	1.737457275390625	10.111160278320313	-6.626977284904455	0	-12.8463745	-7.4432373	-34.407043	91.193054	-11.930914	-10.340162
1448091788863	-1.084014892578125	1.894561767578125	8.604385375976563	-6.738223841349212	0	-13.015747	-6.9335938	-34.24225	92.50452	-12.964402	-9.937862
1448091788903	-1.883819580078125	1.927886962890625	9.089981079101563	-6.784341165632224	0	-12.333679	-7.2738647	-33.909607	93.45862	-13.489052	-9.967613
1448091788943	-2.048065185546875	1.835052490234375	9.946914672851563	-6.686679812312651	0	-12.8463745	-9.143066	-33.744812	93.92035	-13.578948	-9.952551
1448091788984	-1.748138427734375	1.647003173828125	9.120925903320313	-6.803303369726183	0	-13.868713	-10.5026245	-34.075928	95.26938	-14.073018	-9.486246
1448091789024	-1.876678466796875	1.799346923828125	8.449661254882813	-6.913102166595927	0	-15.232849	-9.8220825	-32.74994	96.24249	-14.283047	-8.945208
1448091789064	-1.969512939453125	1.782684326171875	9.101882934570313	-6.820791178040853	0	-13.528442	-11.521912	-32.74994	96.62933	-14.261101	-8.833638
1448091789105	-1.600555419921875	1.570831298828125	9.197097778320313	-6.778832892505342	0	-13.528442	-11.181641	-32.417297	97.74957	-13.964504	-8.474509
1448091789145	-1.417266845703125	1.611297607421875	8.506790161132813	-6.856884603075821	0	-13.528442	-11.521912	-33.081055	98.57501	-13.806768	-8.115411
1448091789185	-1.776702880859375	1.551788330078125	9.451797485351563	-6.769021534417536	0	-13.357544	-11.691284	-31.588745	99.58435	-13.145102	-8.0320635
1448091789225	-1.419647216796875	1.575592041015625	9.727920532226563	-6.662738464174144	0	-15.232849	-11.521912	-32.74994	100.44635	-12.326186	-7.908696
1448091789265	-1.641021728515625	1.647003173828125	10.599136352539063	-6.550050016067377	0	-14.21051	-11.521912	-32.74994	101.27319	-11.572267	-7.7507033
1448091789306	-2.114715576171875	1.632720947265625	10.261123657226563	-6.658198848689971	0	-13.357544	-11.012268	-32.914734	101.67456	-11.318363	-7.7649107
1448091789346	-2.138519287109375	1.820770263671875	9.832656860351563	-6.72197557603619	0	-13.357544	-12.371826	-32.914734	102.52185	-11.146365	-8.034801
1448091789386	-1.367279052734375	1.692230224609375	9.858840942382813	-6.61539456721166	0	-13.357544	-11.352539	-32.58362	102.9386	-11.17934	-7.947744
1448091789427	-1.500579833984375	1.651763916015625	9.125686645507813	-6.760804417965797	0	-13.868713	-11.521912	-33.081055	103.34274	-11.282366	-7.877886
1448091789467	-1.683868408203125	1.594635009765625	9.725540161132813	-6.702359873544684	0	-12.333679	-10.331726	-30.924988	103.65927	-11.187458	-8.041092
1448091789507	-1.476776123046875	1.682708740234375	9.289932250976563	-6.725063878491108	0	-13.868713	-13.900757	-33.081055	103.8512	-11.082753	-8.137797
1448091789547	-1.100677490234375	1.761260986328125	9.270889282226563	-6.655176071309937	0	-14.21051	-12.200928	-33.744812	104.23724	-10.9732895	-8.033783
1448091789587	-1.391082763671875	1.713653564453125	9.399429321289063	-6.688587793149245	0	-13.015747	-12.710571	-32.58362	104.67212	-10.740673	-8.111239
1448091789628	-1.505340576171875	1.675567626953125	9.801712036132813	-6.648762276665556	0	-14.21051	-10.84137	-33.41217	105.05832	-10.512725	-8.375636
1448091789668	-1.143524169921875	1.694610595703125	9.832656860351563	-6.58421838291415	0	-13.357544	-10.671997	-33.247375	105.409485	-10.455884	-8.217273
1448091789708	-1.710052490234375	1.768402099609375	9.197097778320313	-6.764323321639645	0	-14.21051	-11.521912	-32.08618	105.917206	-10.588724	-8.340291
1448091789748	-1.624359130859375	1.768402099609375	9.451797485351563	-6.708884639592984	0	-11.482239	-11.521912	-33.744812	106.20441	-10.686693	-8.439376
1448091789788	-1.588653564453125	1.708892822265625	9.311355590820313	-6.735509827336095	0	-14.21051	-11.862183	-34.407043	106.391266	-10.689562	-8.567593
1448091789828	-1.229217529296875	1.592254638671875	9.418472290039063	-6.6790595287328305	0	-12.164307	-12.88147	-33.081055	106.58206	-10.675394	-8.653451
1448091789869	-1.645782470703125	1.547027587890625	9.109024047851563	-6.80488896043622	0	-12.8463745	-13.900757	-31.422424	106.97162	-10.681914	-8.716847
1448091789909	-1.512481689453125	1.570831298828125	9.606521606445313	-6.697762401182668	0	-12.675476	-13.391113	-33.247375	107.188416	-10.637971	-9.003879
1448091789949	-1.362518310546875	1.639862060546875	9.547012329101563	-6.672217113513161	0	-12.504578	-12.88147	-32.08618	107.45227	-10.570977	-8.967453
1448091789989	-1.667205810546875	1.789825439453125	8.837661743164063	-6.813227091044232	0	-13.1866455	-12.541199	-32.74994	107.6485	-10.653599	-9.032438
1448091790029	-1.548187255859375	1.704132080078125	9.159011840820313	-6.754558606925675	0	-11.993408	-12.031555	-32.58362	107.59384	-10.636147	-9.086811
1448091790070	-1.724334716796875	1.835052490234375	9.566055297851563	-6.695848793090475	0	-14.21051	-11.521912	-31.422424	107.50369	-10.590841	-9.306252
1448091790110	-1.552947998046875	1.770782470703125	9.387527465820313	-6.707348164721594	0	-12.164307	-12.88147	-33.081055	107.30176	-10.623262	-9.57151
1448091790150	-1.186370849609375	1.649383544921875	9.159011840820313	-6.704661164991673	0	-14.21051	-13.900757	-33.744812	107.23486	-10.676105	-9.558899
1448091790190	-1.317291259765625	1.696990966796875	9.342300415039063	-6.688587793149245	0	-12.164307	-13.560486	-32.417297	107.24307	-10.68155	-9.416395
1448091790230	-1.400604248046875	1.763641357421875	9.218521118164063	-6.71119078189344	0	-12.333679	-12.710571	-33.247375	107.33484	-10.636234	-9.439379
1448091790271	-1.491058349609375	1.785064697265625	9.639846801757813	-6.654798427975824	0	-13.357544	-13.050842	-33.909607	107.28021	-10.503742	-9.354105
1448091790311	-1.481536865234375	1.811248779296875	9.097122192382813	-6.736285015109148	0	-13.015747	-13.050842	-32.252502	107.35135	-10.55522	-9.115354
1448091790351	-1.343475341796875	1.725555419921875	9.299453735351563	-6.695083679381295	0	-11.82251	-12.88147	-32.417297	107.34357	-10.609656	-9.0286255
1448091790391	-1.583892822265625	1.730316162109375	9.425613403320313	-6.712729165080729	0	-13.697815	-12.371826	-32.58362	107.665985	-10.595309	-8.686337
1448091790431	-1.269683837890625	1.677947998046875	9.204238891601563	-6.70619630825955	0	-13.528442	-12.541199	-32.74994	107.70804	-10.611424	-8.607523
1448091790472	-1.519622802734375	1.677947998046875	9.682693481445313	-6.629223978218967	0	-14.891052	-11.862183	-32.08618	107.776794	-10.621186	-8.4328785
1448091790512	-1.583892822265625	1.877899169921875	9.287551879882813	-6.71119078189344	0	-13.868713	-12.200928	-31.091309	107.97424	-10.702407	-8.365636
1448091790552	-1.443450927734375	1.882659912109375	9.358963012695313	-6.676396812174916	0	-13.1866455	-13.560486	-32.74994	107.97009	-10.726687	-8.345425
1448091790593	-1.438690185546875	1.837432861328125	9.320877075195313	-6.695083679381295	0	-13.015747	-12.371826	-32.252502	107.98163	-10.72612	-8.341581
1448091790633	-1.162567138671875	1.718414306640625	9.518447875976563	-6.632597000010032	0	-12.675476	-12.371826	-32.58362	107.92401	-10.737993	-8.358765
1448091790673	-1.395843505859375	1.758880615234375	9.180435180664063	-6.71734891113735	0	-15.061951	-12.371826	-33.57849	108.03656	-10.845448	-8.31423
1448091790713	-1.488677978515625	1.720794677734375	9.168533325195313	-6.740552051188034	0	-13.357544	-13.391113	-32.914734	108.04382	-10.882714	-8.275112
1448091790754	-1.345855712890625	1.718414306640625	9.013809204101563	-6.742882030301816	0	-13.357544	-13.391113	-32.914734	108.19995	-10.882148	-8.245895
1448091790794	-1.438690185546875	1.804107666015625	9.689834594726563	-6.6355982536751394	0	-14.72168	-13.731384	-32.58362	108.19772	-10.762534	-8.281271
1448091790834	-1.445831298828125	1.823150634765625	9.675552368164063	-6.633722137449337	0	-13.697815	-12.710571	-32.252502	108.24747	-10.698667	-8.282829
1448091790874	-1.479156494140625	1.827911376953125	9.356582641601563	-6.691260929463044	0	-13.528442	-13.220215	-33.41217	108.34357	-10.715183	-8.232801
1448091790914	-1.250640869140625	1.701751708984375	9.354202270507813	-6.675256341065138	0	-14.379883	-13.050842	-32.252502	108.401245	-10.755412	-8.201174
1448091790955	-1.391082763671875	1.680328369140625	9.154251098632813	-6.733572713414089	0	-12.333679	-12.031555	-32.252502	108.58179	-10.7478485	-8.10229
1448091790995	-1.441070556640625	1.706512451171875	9.142349243164063	-6.739387725361135	0	-13.868713	-14.241028	-33.744812	108.68939	-10.740464	-8.139866
1448091791035	-1.479156494140625	1.782684326171875	9.530349731445313	-6.67069860431222	0	-14.21051	-12.200928	-32.08618	108.75128	-10.674779	-8.182474
1448091791075	-1.431549072265625	1.746978759765625	9.330398559570313	-6.700826626575868	0	-13.015747	-13.050842	-32.914734	108.8208	-10.675452	-8.161645
1448091791116	-1.505340576171875	1.716033935546875	9.547012329101563	-6.682867346830628	0	-14.379883	-13.050842	-31.588745	108.851746	-10.664968	-8.190615
1448091791156	-1.214935302734375	1.787445068359375	9.477981567382813	-6.63634901103906	0	-14.039612	-13.391113	-32.58362	108.82382	-10.675801	-8.205185
1448091791196	-1.207794189453125	1.746978759765625	9.563674926757813	-6.62810043305488	0	-14.891052	-13.220215	-33.081055	108.89557	-10.682153	-8.029045
1448091791236	-1.448211669921875	1.761260986328125	9.056655883789063	-6.745602580825114	0	-14.039612	-14.070129	-33.247375	108.97223	-10.802305	-8.031617
1448091791276	-1.024505615234375	1.687469482421875	9.489883422851563	-6.620246709788906	0	-13.015747	-14.070129	-33.247375	109.05698	-10.78349	-8.022429
1448091791317	-1.495819091796875	1.799346923828125	9.311355590820313	-6.705812451190575	0	-14.21051	-12.200928	-33.081055	109.28363	-10.749831	-7.948292
1448091791357	-1.533905029296875	1.837432861328125	9.311355590820313	-6.705812451190575	0	-13.697815	-12.031555	-31.91986	109.2063	-10.77885	-8.00894
1448091791397	-1.295867919921875	1.799346923828125	9.539871215820313	-6.637475480558303	0	-12.8463745	-11.862183	-33.41217	109.12265	-10.741862	-8.008955
1448091791437	-1.467254638671875	1.858856201171875	9.142349243164063	-6.718890362475113	0	-12.675476	-12.371826	-32.252502	109.05261	-10.8215475	-7.9544296
1448091791478	-1.153045654296875	1.773162841796875	9.408950805664063	-6.639729621666831	0	-15.744019	-12.371826	-32.914734	108.98468	-10.853008	-7.8695803
1448091791518	-1.395843505859375	1.782684326171875	8.963821411132813	-6.7487147452127445	0	-13.528442	-13.560486	-33.081055	109.01257	-10.894095	-7.79133
1448091791558	-1.207794189453125	1.808868408203125	9.444656372070313	-6.637099946234373	0	-13.868713	-13.560486	-34.075928	108.977264	-10.853155	-7.794395
1448091791599	-1.436309814453125	1.842193603515625	9.368484497070313	-6.680201387197593	0	-13.868713	-13.220215	-33.41217	108.96414	-10.808016	-7.6911263
1448091791639	-1.303009033203125	1.830291748046875	9.201858520507813	-6.687442864594416	0	-14.039612	-14.4104	-31.588745	108.91217	-10.73631	-7.557684
1448091791679	-1.341094970703125	1.811248779296875	9.525588989257813	-6.644995534249807	0	-15.061951	-11.691284	-33.57849	108.77661	-10.585043	-7.3687506
1448091791720	-1.441070556640625	1.644622802734375	8.859085083007813	-6.796178546266061	0	-13.868713	-13.220215	-33.41217	108.13129	-10.281507	-7.349115
1448091791760	-1.562469482421875	1.542266845703125	9.235183715820313	-6.770981269147661	0	-13.868713	-13.220215	-33.41217	107.85733	-10.0571575	-7.451702
1448091791800	-1.169708251953125	1.373260498046875	7.5689239501953125	-7.01868389719327	0	-13.528442	-11.521912	-33.744812	107.323425	-9.515638	-7.518882
1448091791840	-0.153289794921875	0.454437255859375	9.161392211914063	-6.730475868426053	0	-15.403748	-11.691284	-32.914734	106.424866	-6.766312	-7.3398285
1448091791881	0.660797119140625	-0.043060302734375	9.135208129882813	-6.683629467591943	0	-15.403748	-11.691284	-32.914734	106.234955	-5.3759036	-7.860305
1448091791921	-3.911895751953125	0.504425048828125	12.515335083007813	-6.7886761474346615	0	-14.891052	-7.104492	-35.0708	107.34088	-2.8545258	-10.477964
1448091791962	-3.024017333984375	0.901947021484375	13.584121704101563	-6.421034849009464	0	-11.482239	-6.083679	-36.39679	107.79437	-1.5962449	-15.021655
1448091792002	-3.016876220703125	1.092376708984375	11.567947387695313	-6.70120986734733	0	-11.482239	-6.083679	-36.39679	107.87323	-2.0336566	-15.549306
1448091792042	-3.152557373046875	0.911468505859375	10.080215454101563	-7.006755970966585	0	-8.92334	-6.5933228	-36.894226	108.04843	-4.2079473	-14.696
1448091792082	-2.162322998046875	0.737701416015625	8.842422485351563	-7.083035992431917	0	-9.436035	-7.7835083	-36.39679	107.62204	-6.3195024	-14.165013
1448091792123	-1.959991455078125	0.990020751953125	8.904312133789063	-6.989803693792527	0	-9.776306	-10.1623535	-34.739685	107.39978	-7.3351536	-14.013766
1448091792163	-2.024261474609375	1.201873779296875	8.947158813476563	-6.956201586064842	0	-9.776306	-11.521912	-34.407043	107.0943	-9.72157	-13.458356
1448091792203	-2.014739990234375	1.627960205078125	8.849563598632813	-6.897513577516721	0	-11.140442	-12.200928	-34.739685	107.12735	-10.971662	-13.008396
1448091792244	-1.814788818359375	1.689849853515625	8.313980102539063	-6.94494992745526	0	-11.140442	-12.200928	-34.739685	107.14255	-11.49861	-12.794819
1448091792284	-1.971893310546875	1.775543212890625	8.123550415039063	-6.991071574041062	0	-10.800171	-13.900757	-32.08618	107.163055	-12.479037	-12.272707
1448091792324	-1.876678466796875	1.785064697265625	8.323501586914063	-6.937473335423684	0	-10.458374	-14.241028	-32.74994	107.07788	-12.661538	-12.049975
1448091792364	-1.857635498046875	1.906463623046875	8.823379516601563	-6.827974873939057	0	-10.800171	-13.900757	-32.08618	107.00256	-12.538591	-11.930687
1448091792405	-2.233734130859375	2.137359619140625	9.151870727539063	-6.797364845376767	0	-11.651611	-15.0894165	-32.252502	106.95813	-12.398223	-12.042632
1448091792445	-1.957611083984375	2.149261474609375	10.070693969726563	-6.603110596185534	0	-11.140442	-13.560486	-32.74994	106.85144	-12.218481	-12.066077
1448091792485	-2.140899658203125	2.196868896484375	9.382766723632813	-6.73434741241641	0	-11.140442	-12.541199	-31.755066	106.81659	-12.34133	-12.029327
1448091792525	-1.836212158203125	2.080230712890625	9.106643676757813	-6.7487147452127445	0	-12.333679	-14.4104	-33.909607	106.74817	-12.584501	-11.9548855
1448091792566	-1.836212158203125	1.992156982421875	9.356582641601563	-6.722361444728973	0	-12.333679	-13.391113	-33.57849	106.65381	-12.813746	-11.883887
1448091792606	-1.931427001953125	2.070709228515625	8.880508422851563	-6.803303369726183	0	-11.82251	-12.88147	-32.08618	106.60501	-13.045457	-11.901473
1448091792647	-1.907623291015625	2.161163330078125	9.025711059570313	-6.760413679593316	0	-10.969543	-13.391113	-31.25763	106.60669	-13.189982	-11.868532
1448091792687	-1.890960693359375	2.165924072265625	9.282791137695313	-6.700060286869357	0	-13.015747	-14.4104	-31.25763	106.61151	-13.210996	-11.864066
1448091792727	-2.181365966796875	2.163543701171875	9.106643676757813	-6.791832776625562	0	-11.31134	-14.750671	-32.252502	106.58594	-13.327974	-11.927466
1448091792767	-1.752899169921875	2.146881103515625	9.047134399414063	-6.733960038499822	0	-11.482239	-14.241028	-32.417297	106.58423	-13.435446	-11.851734
1448091792807	-2.062347412109375	2.289703369140625	8.899551391601563	-6.7855228165052095	0	-13.015747	-14.070129	-31.588745	106.56653	-13.543079	-11.814228
1448091792848	-1.857635498046875	2.187347412109375	9.125686645507813	-6.731636819802501	0	-10.800171	-13.900757	-32.74994	106.423615	-13.586706	-11.8235
1448091792888	-1.855255126953125	2.184967041015625	9.175674438476563	-6.723519340571988	0	-12.164307	-14.241028	-32.417297	106.44177	-13.551718	-11.73095
1448091792928	-2.121856689453125	2.284942626953125	9.035232543945313	-6.7737270251714605	0	-11.993408	-12.710571	-32.58362	106.510376	-13.565745	-11.6743765
1448091792968	-1.959991455078125	2.256378173828125	9.292312622070313	-6.710037496057876	0	-12.164307	-13.220215	-31.422424	106.32172	-13.584037	-11.753665
1448091793009	-2.119476318359375	2.275421142578125	9.023330688476563	-6.764323321639645	0	-11.993408	-14.750671	-32.252502	106.31253	-13.64694	-11.7816515
1448091793050	-1.969512939453125	2.249237060546875	9.287551879882813	-6.713498643597891	0	-12.164307	-12.88147	-34.075928	106.253235	-13.675637	-11.816045
1448091793090	-1.812408447265625	2.184967041015625	9.320877075195313	-6.693171717712882	0	-12.164307	-13.560486	-32.417297	106.131226	-13.702319	-11.747905
1448091793130	-1.879058837890625	2.192108154296875	9.078079223632813	-6.7421051737620665	0	-11.82251	-12.200928	-32.417297	106.19226	-13.809725	-11.664736
1448091793170	-1.767181396484375	2.132598876953125	9.235183715820313	-6.708116306918969	0	-11.140442	-13.900757	-33.081055	106.12091	-13.802048	-11.635239
1448091793211	-2.017120361328125	2.303985595703125	9.318496704101563	-6.707348164721594	0	-11.993408	-12.710571	-32.252502	106.21973	-13.7544985	-11.517802
1448091793251	-2.321807861328125	2.249237060546875	9.408950805664063	-6.751050948702867	0	-13.868713	-13.560486	-31.422424	106.08652	-13.808308	-11.566157
1448091793291	-1.974273681640625	2.256378173828125	9.454177856445313	-6.737060398649691	0	-13.1866455	-13.220215	-32.417297	106.0022	-13.831582	-11.649852
1448091793332	-2.131378173828125	2.277801513671875	9.432754516601563	-6.7115753060039545	0	-13.015747	-13.050842	-31.91986	105.6293	-13.97576	-11.59967
1448091793372	-2.178985595703125	2.175445556640625	9.449417114257813	-6.73318543714075	0	-13.015747	-13.050842	-31.91986	105.50293	-14.001776	-11.636928
1448091793412	-1.564849853515625	2.006439208984375	9.539871215820313	-6.6472550407894575	0	-12.504578	-13.560486	-33.081055	105.26724	-14.15254	-11.543331
1448091793452	-1.914764404296875	2.289703369140625	9.111404418945313	-6.726609190957047	0	-13.015747	-15.0894165	-33.57849	105.51407	-14.424758	-11.526281
1448091793492	-2.850250244140625	1.846954345703125	9.163772583007813	-6.949945193312585	0	-11.993408	-14.070129	-32.252502	105.247345	-14.807492	-13.039179
1448091793534	-3.126373291015625	1.832672119140625	8.340164184570313	-7.152082527332827	0	-11.140442	-13.220215	-32.417297	104.92432	-15.100207	-15.439656
1448091793574	-4.407012939453125	2.432525634765625	9.901687622070313	-6.991071574041062	0	-8.753967	-15.260315	-33.41217	104.93875	-15.422075	-16.098871
1448091793614	-2.712188720703125	2.630096435546875	9.839797973632813	-6.682867346830628	0	-9.436035	-15.260315	-33.41217	104.37128	-16.564201	-15.374187
1448091793654	-2.483673095703125	2.311126708984375	7.6617584228515625	-7.069957524971007	0	-9.605408	-15.4296875	-32.914734	103.63138	-18.402147	-15.747792
1448091793694	-3.214447021484375	3.210906982421875	9.525588989257813	-6.720818259468873	0	-9.947205	-14.070129	-32.58362	104.27417	-19.18084	-14.637305
1448091793735	-1.474395751953125	3.606048583984375	9.306594848632813	-6.424552146899151	0	-11.31134	-17.468262	-31.588745	105.21091	-20.1069	-12.996858
1448091793775	-1.243499755859375	3.203765869140625	8.454421997070313	-6.579420409343236	0	-11.482239	-17.29889	-32.08618	105.80585	-20.91281	-12.731
1448091793816	-2.564605712890625	2.910980224609375	6.7024688720703125	-7.151634202896568	0	-10.969543	-18.148804	-28.271484	108.76016	-23.132996	-11.955485
1448091793856	-1.022125244140625	4.041656494140625	9.527969360351563	-6.264354863035088	0	-11.140442	-18.998718	-28.10669	111.197784	-23.21336	-9.577005
1448091793896	1.015472412109375	3.106170654296875	7.0857086181640625	-6.458861706081207	0	-12.333679	-19.848633	-28.935242	112.411194	-24.286222	-10.1880665
1448091793936	-1.926666259765625	3.727447509765625	7.2785186767578125	-6.793412331307953	0	-12.8463745	-21.377563	-26.116943	115.66281	-24.544481	-10.246931
1448091793976	2.362762451171875	3.560821533203125	7.4070587158203125	-6.155484732003751	0	-9.947205	-21.206665	-26.61438	120.74802	-22.666033	-5.724093
1448091794017	3.781463623046875	1.856475830078125	7.9902496337890625	-6.114962275775958	0	-13.868713	-22.05658	-26.116943	125.84781	-20.07199	-2.0348518
1448091794057	0.558441162109375	1.454193115234375	12.522476196289063	-5.9941060034627185	0	-13.357544	-21.546936	-25.619507	133.05981	-16.921225	-0.79058546
1448091794097	-4.095184326171875	1.201873779296875	12.084487915039063	-6.774904539013843	0	-12.333679	-22.227478	-26.945496	140.6908	-15.6949625	-1.1359838
1448091794137	0.503692626953125	1.887420654296875	4.8933868408203125	-7.107618688084278	0	-9.776306	-23.075867	-26.779175	145.88397	-16.524578	-3.5063577
1448091794177	-2.481292724609375	1.044769287109375	8.111648559570313	-7.222973648905416	0	-6.536865	-25.28534	-25.286865	150.8937	-15.274856	-8.2705
1448091794218	-4.385589599609375	1.332794189453125	8.102127075195313	-7.5595282020729595	0	-1.5914917	-25.115967	-26.44806	156.61334	-12.353626	-12.488159
1448091794258	-7.608612060546875	0.506805419921875	4.7481842041015625	NaN	0	1.1352539	-23.756409	-28.10669	161.52795	-9.745824	-15.210962
1448091794298	-3.690521240234375	0.602020263671875	12.574844360351563	-7.962763104537087	0	5.569458	-21.716309	-28.10669	163.48877	-9.26386	-18.804947
1448091794338	-1.826690673828125	1.999298095703125	10.634841918945313	-6.519131469227376	0	7.9559326	-21.377563	-27.111816	163.84991	-9.368444	-19.991251
1448091794379	-0.146148681640625	2.270660400390625	9.873123168945313	-6.342839776240954	0	7.444763	-23.925781	-26.945496	165.02698	-10.535347	-17.927298
1448091794419	-3.814300537109375	2.910980224609375	5.9931182861328125	-7.5505419392150355	0	5.909729	-24.775696	-27.111816	170.02661	-11.658306	-16.06902
1448091794459	-4.359405517578125	2.075469970703125	5.3908843994140625	-8.043946076922907	0	6.4224243	-24.266052	-25.950623	172.20404	-11.398843	-15.310551
1448091794499	-5.278228759765625	0.268768310546875	7.3903961181640625	-8.263571915697801	0	8.2977295	-24.435425	-26.116943	176.23126	-9.792578	-13.996944
1448091794540	-8.844024658203125	0.280670166015625	9.880264282226563	-8.659033099972353	0	8.979797	-23.416138	-27.111816	179.89429	-7.666614	-14.425406
1448091794580	-4.830718994140625	0.166412353515625	8.602005004882813	-7.822236534236277	0	11.195374	-21.206665	-27.940369	181.3611	-6.4759626	-14.675332
1448091794620	-2.243255615234375	1.339935302734375	10.715774536132813	-6.389193796293332	0	12.04834	-21.716309	-28.76892	181.97893	-7.010995	-14.759523
1448091794660	-5.163970947265625	2.918121337890625	11.644119262695313	-6.740940258065107	0	11.708069	-21.037292	-26.44806	183.94434	-8.180388	-18.83398
1448091794701	-3.838104248046875	2.413482666015625	8.904312133789063	-7.190470899644559	0	13.412476	-22.05658	-25.784302	184.30838	-7.9342055	-19.565157
1448091794741	-4.397491455078125	1.156646728515625	16.157302856445313	-6.212652569961156	0	13.412476	-21.716309	-25.453186	183.40533	-4.0825195	-24.509243
1448091794781	-9.065399169921875	1.494659423828125	7.6784210205078125	-9.478451749335665	0	15.969849	-20.86792	-26.61438	182.10461	-1.764989	-31.356092
1448091794821	-2.690765380859375	1.199493408203125	12.900955200195313	-6.4287777389064615	0	18.18695	-18.998718	-25.453186	180.02393	-3.42129	-27.88681
1448091794862	-3.811920166015625	0.037872314453125	8.311599731445313	-7.67644698204969	0	16.993713	-20.86792	-26.61438	178.92145	-5.9836507	-26.944572
1448091794902	-4.849761962890625	2.370635986328125	9.061416625976563	-7.241002477118816	0	15.629578	-20.86792	-25.950623	177.52502	-9.196993	-29.240854
1448091794942	-6.377960205078125	5.419891357421875	13.579360961914063	-6.2539542092888265	0	16.311646	-23.925781	-21.97113	176.99805	-13.606354	-27.485722
1448091794983	-1.614837646484375	4.608184814453125	10.230178833007813	-6.170183357070237	0	15.629578	-25.62561	-22.302246	177.15283	-16.208014	-26.700592
1448091795023	-5.847137451171875	3.663177490234375	6.0645294189453125	-7.8366838956930644	0	15.79895	-24.775696	-21.142578	178.92981	-19.5149	-27.65812
1448091795063	-2.298004150390625	5.360382080078125	8.171157836914063	-6.4549532753881165	0	17.333984	-26.985168	-17.991638	181.13033	-21.14594	-26.26702
1448091795104	-2.193267822265625	4.336822509765625	7.2642364501953125	-6.739387725361135	0	17.675781	-28.344727	-17.658997	181.65012	-25.19883	-24.2844
1448091795144	-5.318695068359375	5.753143310546875	8.228286743164063	-6.863347549843615	0	15.969849	-30.3833	-16.333008	181.47353	-29.625608	-24.733418
1448091795184	-4.216583251953125	4.736724853515625	7.6546173095703125	-6.947446469471634	0	16.140747	-30.212402	-14.176941	181.1073	-31.594427	-24.284674
1448091795224	-3.292999267578125	7.400360107421875	8.133071899414063	-6.3079670184973935	0	15.629578	-32.762146	-12.353516	182.51234	-38.289406	-22.62321
1448091795264	-4.418914794921875	3.915496826171875	4.9790802001953125	-7.691023900814411	0	15.116882	-32.93152	-8.87146	182.91063	-40.79601	-23.543667
1448091795305	-1.967132568359375	2.627716064453125	6.2216339111328125	-7.183201935041774	0	15.969849	-32.421875	-9.037781	182.05075	-41.76342	-22.991922
1448091795345	-3.388214111328125	3.332305908203125	4.4553985595703125	-7.709103788693454	0	14.094543	-33.27179	-6.5490723	179.13818	-46.970333	-24.45623
1448091795385	-2.031402587890625	2.813385009765625	3.1319122314453125	-7.828243446362533	0	15.79895	-33.950806	-3.5644531	180.23323	-50.777794	-26.611767
1448091795425	-9.477203369140625	4.755767822265625	7.4689483642578125	-8.149037688235277	0	16.481018	-34.631348	-0.9124756	186.25168	-51.423645	-26.741802
1448091795466	-5.692413330078125	4.203521728515625	7.5475006103515625	-7.345175816973217	0	17.504883	-34.291077	1.4099121	188.38104	-52.786903	-26.264153
1448091795507	-4.511749267578125	5.850738525390625	6.2144927978515625	-7.05824011532986	0	18.69812	-32.762146	2.571106	186.26521	-54.404182	-26.551023
1448091795547	-9.160614013671875	5.546051025390625	8.128311157226563	-7.682041653202879	0	18.869019	-33.27179	1.4099121	183.2126	-55.677773	-25.168594
1448091795587	-5.149688720703125	6.422027587890625	4.3554229736328125	-7.434309579157663	0	16.311646	-35.14099	1.9073486	178.05542	-57.984585	-25.118168
1448091795628	-5.440093994140625	6.836212158203125	4.5767974853515625	-7.362645080322866	0	14.434814	-34.631348	4.0634155	172.29492	-59.496017	-26.524149
1448091795668	-4.316558837890625	8.147796630859375	4.4982452392578125	-6.9205156228158256	0	11.877441	-36.50055	4.560852	167.0899	-61.503178	-27.025673
1448091795708	-3.440582275390625	8.152557373046875	3.6436920166015625	-6.915982918085168	0	10.684204	-35.990906	4.3945313	162.90527	-62.473217	-27.117737
1448091795749	-4.468902587890625	7.883575439453125	3.4270782470703125	-7.190925880650877	0	10.684204	-35.990906	4.3945313	159.1731	-65.82583	-27.822756
1448091795789	-5.168731689453125	9.107086181640625	3.0771636962890625	-7.157917650514399	0	10.343933	-35.650635	6.3842773	150.435	-70.041046	-28.481579
1448091795829	-4.754547119140625	7.657440185546875	2.0464630126953125	-7.581885169038161	0	4.3762207	-36.84082	8.540344	143.63635	-72.85925	-27.147844
1448091795869	-4.740264892578125	8.135894775390625	1.9845733642578125	-7.487073486448082	0	4.3762207	-36.84082	8.540344	137.6004	-75.48277	-26.445744
1448091795910	-4.380828857421875	8.347747802734375	1.5513458251953125	-7.457501285491005	0	3.5232544	-36.66992	9.037781	131.69354	-78.95088	-25.921238
1448091795950	-3.857147216796875	8.764312744140625	1.6941680908203125	-7.237293942294133	0	0.7949829	-36.32965	8.705139	129.51593	-79.77336	-24.532265
1448091795990	-4.706939697265625	7.807403564453125	1.6298980712890625	-7.524316816799389	0	0.7949829	-36.32965	8.705139	127.80185	-80.13236	-24.170507
1448091796030	-4.268951416015625	9.380828857421875	-0.6266937255859375	-7.688774767403997	0	-2.444458	-35.481262	7.545471	121.3689	-81.02909	-24.220932
1448091796071	-3.504852294921875	9.345123291015625	0.6039581298828125	-7.268051374116193	0	-1.5914917	-39.048767	5.72052	121.4606	-81.353485	-23.641106
1448091796111	-3.819061279296875	8.700042724609375	0.8443756103515625	-7.413828164729436	0	-1.9332886	-36.66992	6.715393	122.10718	-81.43345	-22.747066
1448091796152	-3.635772705078125	7.631256103515625	1.4204254150390625	-7.479389478049619	0	-1.7623901	-36.50055	7.2128296	121.28046	-81.18684	-22.93089
1448091796192	-3.328704833984375	8.002593994140625	0.4182891845703125	-7.5500144499428865	0	-2.6153564	-35.990906	6.3842773	122.14871	-81.399704	-23.566887
1448091796232	-3.904754638671875	8.216827392578125	0.7896270751953125	-7.547905724737948	0	-3.2974243	-36.32965	6.715393	124.654755	-80.62153	-24.545012
1448091796273	-4.556976318359375	7.538421630859375	1.0728912353515625	-7.7930616845335265	0	-0.9094238	-37.350464	7.710266	127.575165	-79.376495	-25.612743
1448091796313	-4.735504150390625	7.731231689453125	0.9086456298828125	-7.830651324313985	0	-1.2512207	-37.010193	8.374023	128.39084	-79.347404	-26.201445
1448091796353	-4.902130126953125	8.190643310546875	2.0393218994140625	-7.471221069081815	0	-1.2512207	-37.010193	8.374023	128.82831	-79.3665	-26.649239
1448091796393	-4.430816650390625	8.914276123046875	0.3087921142578125	-7.617478809450224	0	1.3061523	-37.860107	9.202576	134.3374	-78.01521	-30.058725
1448091796433	-2.497955322265625	6.312530517578125	-0.2672576904296875	-7.923167626676547	0	4.3762207	-38.198853	8.87146	137.32047	-77.807175	-30.681719
1448091796475	-3.104949951171875	7.176605224609375	1.3442535400390625	-7.479389478049619	0	4.3762207	-38.198853	8.87146	137.05011	-77.98869	-31.159735
1448091796515	-5.516265869140625	8.338226318359375	0.6682281494140625	-7.938395354188194	0	5.227661	-37.350464	8.705139	137.29102	-77.90542	-32.878895
1448091796555	-3.764312744140625	7.907379150390625	1.4489898681640625	-7.441847100770556	0	6.0806274	-36.50055	8.87146	139.1853	-77.36546	-33.698254
1448091796596	-7.222991943359375	7.678863525390625	2.1750030517578125	-8.18460288724392	0	6.9335938	-37.68921	8.705139	140.98138	-76.90452	-35.46586
1448091796636	-5.094940185546875	7.426544189453125	1.3704376220703125	-7.8825309716185945	0	8.808899	-36.50055	7.876587	142.49207	-76.96949	-36.965298
1448091796676	-6.613616943359375	8.102569580078125	0.9729156494140625	-8.237565811037626	0	11.366272	-35.990906	8.705139	142.90341	-77.32186	-39.037407
1448091796716	-5.659088134765625	7.666961669921875	2.0702667236328125	-7.787159419346768	0	11.53717	-35.820007	11.524963	142.89166	-78.03419	-39.908546
1448091796756	-10.814971923828125	4.860504150390625	0.1778717041015625	NaN	0	12.559509	-35.14099	12.519836	142.53653	-79.642654	-38.265114
1448091796797	-1.091156005859375	7.457489013671875	2.6963043212890625	-6.796178546266061	0	10.343933	-35.650635	12.353516	146.92163	-79.50779	-35.374897
1448091796837	-6.949249267578125	12.979949951171875	-2.4119720458984375	-7.904304376892142	0	10.002136	-35.990906	13.68103	151.75763	-80.68668	-32.653843
1448091796877	-3.654815673828125	7.309906005859375	-1.2360687255859375	-8.251279580779151	0	9.831238	-34.121704	14.5095825	152.47559	-82.151436	-31.25039
1448091796918	-4.818817138671875	7.052825927734375	1.5561065673828125	-7.859778139519356	0	7.6156616	-33.950806	15.007019	153.77771	-82.3329	-29.341349
1448091796958	-4.492706298828125	7.071868896484375	0.0041046142578125	-8.199345442714794	0	7.785034	-34.80072	15.504456	155.6388	-83.37048	-26.72961
1448091796998	-4.492706298828125	7.071868896484375	0.0041046142578125	-8.199345442714794	0	7.785034	-34.80072	15.504456	155.6388	-83.37048	-26.72961
1448091797039	-3.947601318359375	9.756927490234375	-1.5764617919921875	-7.749207383146617	0	5.909729	-33.950806	16.001892	155.80444	-85.22876	-24.666052
1448091797079	-6.989715576171875	10.461517333984375	-1.7526092529296875	-8.495420185907816	0	4.5455933	-33.27179	17.660522	155.73376	-85.639404	-25.298248
1448091797119	-3.923797607421875	8.193023681640625	2.3083038330078125	-7.2419304487270555	0	6.9335938	-33.950806	17.991638	155.45795	-85.79881	-25.845018
1448091797159	-4.942596435546875	7.769317626953125	-1.1860809326171875	-8.525725197847557	0	6.7626953	-34.46045	18.82019	154.72168	-86.79347	-25.701715
1448091797200	-3.811920166015625	8.809539794921875	1.2133331298828125	-7.314421683990275	0	5.227661	-32.252502	17.991638	152.11963	-88.540474	-24.900923
1448091797240	2.234222412109375	11.120880126953125	0.3397369384765625	-6.105946074335096	0	4.2053223	-32.592773	18.322754	151.57184	-88.529564	-24.412497
1448091797280	-3.223968505859375	8.766693115234375	0.6967926025390625	-7.3086974374659714	0	3.352356	-33.102417	19.152832	151.47269	-88.50702	-24.241922
1448091797320	-3.288238525390625	8.969024658203125	0.1469268798828125	-7.3925343396056284	0	4.7164917	-34.46045	19.152832	151.38397	-88.387764	-23.928642
1448091797361	-3.166839599609375	9.223724365234375	-0.0696868896484375	-7.359724875279377	0	3.8635254	-34.291077	18.655396	151.38177	-88.47139	-23.718487
1448091797401	-3.723846435546875	9.002349853515625	-0.4767303466796875	-7.61530516103171	0	3.6941528	-34.121704	17.825317	151.5672	-88.61172	-23.732588
1448091797441	2.976898193359375	5.995941162109375	-3.9711151123046875	-7.570146503241334	0	4.2053223	-33.950806	19.317627	149.97336	-89.49834	-23.416185
1448091797481	-8.094207763671875	14.993743896484375	-3.1094207763671875	-7.859778139519356	0	3.5232544	-32.93152	19.317627	147.38345	-89.761185	-24.466995
1448091797522	-2.528900146484375	4.208282470703125	-3.5569305419921875	NaN	0	3.6941528	-33.102417	18.82019	146.68588	-87.64308	-21.810892
1448091797562	0.553680419921875	11.168487548828125	2.8795928955078125	-5.98537495241934	0	0.28381348	-34.46045	17.163086	145.16394	-84.66701	-19.326542
1448091797602	-2.474151611328125	12.680023193359375	0.1397857666015625	-6.590133406261955	0	-0.0579834	-35.820007	12.519836	144.59189	-83.32262	-17.1363
1448091797644	-2.414642333984375	10.042572021484375	0.7753448486328125	-6.90775979465359	0	-0.0579834	-37.179565	13.845825	144.30539	-83.097404	-15.741053
1448091797684	-3.133514404296875	8.823822021484375	10.691970825195313	-5.759097258508302	0	-3.1265259	-36.16028	14.840698	144.31793	-83.47534	-15.578612
1448091797724	-3.535797119140625	10.266326904296875	-8.703292846679688	NaN	0	-1.0803223	-35.820007	15.17334	143.18729	-87.00931	-15.67211
1448091797765	-2.869293212890625	9.199920654296875	0.1278839111328125	-7.2652398617002225	0	-3.6376953	-34.631348	14.675903	142.53809	-87.61847	-15.615205
1448091797805	-6.994476318359375	-2.537689208984375	-0.8433074951171875	NaN	0	-3.4683228	-35.14099	16.499329	142.24124	-87.4058	-15.564385
1448091797845	-5.666229248046875	18.423858642578125	1.6465606689453125	-6.011314758614767	0	-3.2974243	-34.631348	16.66565	141.0636	-86.80468	-15.6614485
1448091797885	-2.702667236328125	8.507232666015625	0.0802764892578125	-7.380730687991351	0	-2.786255	-35.14099	15.835571	140.68628	-87.58851	-14.7460375
1448091797925	-2.964508056640625	7.238494873046875	-0.4457855224609375	-7.850021022819341	0	-5.001831	-34.291077	17.660522	139.32532	-87.709785	-13.786471
1448091797966	-3.726226806640625	9.033294677734375	1.9750518798828125	-7.10805969995322	0	-5.1727295	-34.121704	15.504456	138.20898	-87.40735	-13.228098
1448091798006	-3.083526611328125	7.540802001953125	1.1990509033203125	-7.428296761566071	0	-6.365967	-34.97162	15.670776	137.555	-88.10301	-12.096636
1448091798046	-1.519622802734375	11.397003173828125	-1.4574432373046875	-6.904887206874349	0	-7.3898315	-34.97162	15.007019	136.42969	-88.8832	-10.120279
1448091798086	-1.495819091796875	7.145660400390625	0.3730621337890625	-7.3524395646611005	0	-8.241272	-34.121704	15.504456	135.50342	-89.30599	-7.996275
1448091798127	0.258514404296875	11.147064208984375	-1.3741302490234375	-6.639353820073689	0	-10.629272	-32.421875	15.504456	134.34381	-89.83408	-5.592412
1448091798167	-0.684112548828125	11.989715576171875	0.4920806884765625	-6.506484497612005	0	-10.800171	-31.233215	15.007019	132.96814	-90.222565	-4.0565434
1448091798207	-0.258026123046875	10.839996337890625	0.3706817626953125	-6.4971208903002475	0	-13.1866455	-31.57196	14.675903	131.84412	-90.080925	-2.7657108
1448091798247	-0.431793212890625	9.918792724609375	1.3299713134765625	-6.517683639677756	0	-14.379883	-32.081604	15.504456	130.80786	-90.217026	-1.785552
1448091798288	0.403717041015625	9.797393798828125	5.0385894775390625	-5.902794124014001	0	-14.72168	-31.062317	14.178467	130.07379	-90.73791	-1.2989486
1448091798328	-0.717437744140625	6.591033935546875	1.8203277587890625	-7.0328076591432955	0	-15.403748	-31.062317	15.17334	129.73404	-90.829475	-1.1516168
1448091798368	1.070220947265625	9.554595947265625	-0.5005340576171875	-6.6247321779630655	0	-16.937256	-30.892944	14.675903	129.02286	-91.80255	-0.8821383
1448091798408	1.055938720703125	9.223724365234375	-0.7718963623046875	-6.723133326978737	0	-15.232849	-29.873657	14.343262	129.08557	-92.24926	-0.688971
1448091798448	-0.529388427734375	9.766448974609375	-0.6385955810546875	-6.874286073112172	0	-14.72168	-30.04303	15.17334	129.54419	-92.360855	-0.69713527
1448091798489	-0.241363525390625	9.497467041015625	-0.9170989990234375	-6.918866543359384	0	-15.914917	-30.892944	14.840698	130.00879	-92.51695	-0.64367
1448091798529	-0.386566162109375	9.383209228515625	-1.0337371826171875	-6.984737869457641	0	-15.061951	-30.723572	15.504456	130.61673	-92.836006	-0.58052313
1448091798571	-0.572235107421875	9.492706298828125	-1.1479949951171875	-7.01868389719327	0	-15.232849	-29.533386	15.670776	130.79895	-92.92862	-0.5878318
1448091798611	-0.791229248046875	9.402252197265625	-1.1313323974609375	-7.071697707091199	0	-15.744019	-31.742859	16.830444	131.07758	-93.14336	-0.5745925
1448091798651	-0.305633544921875	9.468902587890625	-0.5719451904296875	-6.8755039844216865	0	-15.403748	-31.062317	16.830444	130.94254	-93.15555	-0.5458138
1448091798692	0.044281005859375	9.473663330078125	-0.8361663818359375	-6.860114304446471	0	-15.061951	-28.683472	15.835571	130.60938	-93.132454	-0.4742869
1448091798732	0.372772216796875	9.652191162109375	-1.1813201904296875	-6.832773645204454	0	-14.891052	-30.212402	15.670776	130.49652	-93.135895	-0.31801012
1448091798772	-0.022369384765625	9.795013427734375	-0.5695648193359375	-6.772942269860884	0	-16.596985	-29.873657	16.001892	130.45313	-93.0517	-0.17914079
1448091798812	-0.139007568359375	9.454620361328125	-0.9218597412109375	-6.9094025521622076	0	-16.596985	-30.552673	16.001892	130.2876	-92.94542	-0.032569762
1448091798852	-0.124725341796875	9.695037841796875	-0.8076019287109375	-6.846412409442762	0	-16.767883	-31.062317	17.163086	129.96854	-92.82883	0.10256046
1448091798893	0.196624755859375	9.614105224609375	-0.8218841552734375	-6.808459605489544	0	-16.255188	-29.873657	16.001892	129.51978	-92.67788	0.22387366
1448091798933	0.034759521484375	9.535552978515625	-0.7076263427734375	-6.829573604882455	0	-18.301392	-30.552673	15.007019	128.9007	-92.64875	0.40300328
1448091798973	0.268035888671875	9.647430419921875	-0.4933929443359375	-6.737060398649691	0	-16.085815	-30.3833	14.840698	128.13828	-92.55591	0.49942976
1448091799013	0.308502197265625	9.606964111328125	-0.5529022216796875	-6.746769271525945	0	-16.767883	-29.702759	16.499329	127.4574	-92.25625	0.49422672
1448091799054	0.365631103515625	9.690277099609375	-0.6576385498046875	-6.740940258065107	0	-15.403748	-29.702759	14.5095825	126.739685	-92.059296	0.707699
1448091799094	0.420379638671875	9.540313720703125	-0.3719940185546875	-6.710037496057876	0	-18.47229	-30.04303	14.5095825	126.142426	-91.806175	0.96547586
1448091799134	0.570343017578125	9.683135986328125	0.1921539306640625	-6.574629558524658	0	-16.767883	-30.723572	13.845825	125.50049	-91.513374	1.1782788
1448091799174	0.598907470703125	9.673614501953125	-0.3005828857421875	-6.648762276665556	0	-18.47229	-30.3833	13.183594	125.132996	-91.19103	1.4072782
1448091799214	0.184722900390625	9.518890380859375	-0.5838470458984375	-6.786704929744816	0	-17.619324	-28.85437	13.68103	124.945496	-91.146645	1.7214923
1448091799255	-0.096160888671875	9.609344482421875	-0.3053436279296875	-6.772157717500576	0	-17.108154	-29.364014	12.188721	124.62424	-91.0889	1.8278399
1448091799295	-0.124725341796875	9.521270751953125	-0.2434539794921875	-6.781192352977195	0	-17.108154	-30.723572	13.514709	124.00638	-90.82374	1.7758962
1448091799335	0.199005126953125	9.690277099609375	-0.4005584716796875	-6.726222790163059	0	-18.132019	-30.3833	13.845825	123.373505	-90.51823	1.7504572
1448091799375	0.584625244140625	9.380828857421875	-0.5171966552734375	-6.732798209661354	0	-18.301392	-30.212402	12.0224	122.625	-90.199554	1.9012998
1448091799416	0.403717041015625	9.471282958984375	-0.1791839599609375	-6.692789466258574	0	-18.643188	-30.552673	10.36377	121.760345	-89.992836	2.0808475
1448091799456	0.441802978515625	10.011627197265625	0.0112457275390625	-6.571684869224493	0	-18.643188	-29.193115	10.36377	121.06061	-89.67452	2.1410556
1448091799497	0.539398193359375	9.428436279296875	0.0897979736328125	-6.635222941640483	0	-17.619324	-30.552673	11.358643	120.679535	-89.36091	2.244231
1448091799537	0.289459228515625	10.068756103515625	-0.0220794677734375	-6.591613862509231	0	-19.665527	-30.892944	11.358643	120.432434	-89.1142	2.333496
1448091799577	0.394195556640625	9.209442138671875	0.2564239501953125	-6.666526490429274	0	-18.47229	-29.702759	10.197449	120.22092	-88.81038	2.3718781
1448091799617	0.234710693359375	9.492706298828125	0.4373321533203125	-6.618379627204572	0	-18.47229	-30.04303	10.197449	119.88135	-88.369484	2.4179626
1448091799658	0.541778564453125	9.542694091796875	0.3825836181640625	-6.571316971513301	0	-19.154358	-28.683472	8.540344	119.33606	-87.908226	2.427501
1448091799698	0.756011962890625	9.695037841796875	0.8039093017578125	-6.451758855259266	0	-19.154358	-29.364014	8.207703	119.2442	-87.57764	2.4758039
1448091799738	0.403717041015625	9.540313720703125	0.2207183837890625	-6.618379627204572	0	-18.643188	-29.533386	9.037781	119.421875	-87.32472	2.6167626
1448091799778	0.446563720703125	9.506988525390625	0.6658477783203125	-6.547857907656074	0	-19.836426	-30.04303	9.202576	119.452545	-87.288925	2.6429331
1448091799819	0.284698486328125	9.564117431640625	0.5039825439453125	-6.5890235111012405	0	-18.301392	-29.533386	9.037781	119.40204	-86.897835	2.6578784
1448091799859	0.410858154296875	9.692657470703125	0.5277862548828125	-6.546032276445892	0	-18.301392	-29.533386	9.037781	119.32663	-86.768326	2.6391537
1448091799899	0.756011962890625	9.523651123046875	0.5777740478515625	-6.511537461323524	0	-19.154358	-29.702759	8.87146	119.132996	-86.45454	2.856188
1448091799939	0.563201904296875	9.545074462890625	0.4182891845703125	-6.562133086660026	0	-20.178223	-29.702759	8.207703	119.18948	-86.23991	2.9865582
1448091799980	0.451324462890625	9.806915283203125	0.4992218017578125	-6.52674305984978	0	-20.178223	-29.702759	8.207703	119.142944	-86.180595	3.0093954
1448091800020	0.625091552734375	9.454620361328125	0.8396148681640625	-6.502159535681333	0	-20.518494	-30.3833	8.87146	118.930115	-85.995926	3.0370913
1448091800060	0.925018310546875	9.583160400390625	0.7467803955078125	-6.451758855259266	0	-20.689392	-28.5141	7.710266	118.9635	-85.82074	3.0881634
1448091800100	0.579864501953125	9.587921142578125	0.5206451416015625	-6.537283437454731	0	-19.496155	-29.702759	8.87146	118.888855	-85.66107	3.2294762
1448091800141	0.736968994140625	9.654571533203125	0.7634429931640625	-6.466692288624158	0	-20.518494	-30.04303	8.540344	118.95801	-85.48848	3.3198676
1448091800181	0.308502197265625	9.721221923828125	0.6039581298828125	-6.545667272853277	0	-19.665527	-30.552673	8.042908	119.07156	-85.29694	3.3946478
1448091800221	0.770294189453125	9.875946044921875	0.7563018798828125	-6.429834963125534	0	-20.518494	-30.723572	9.535217	118.87747	-85.20449	3.3761997
1448091800262	0.179962158203125	9.885467529296875	0.8324737548828125	-6.505402725921576	0	-18.98346	-29.873657	8.042908	118.779175	-85.04864	3.539755
1448091800302	0.370391845703125	9.485565185546875	1.2942657470703125	-6.467405070332024	0	-18.814087	-29.364014	6.550598	118.750244	-84.69478	3.5766802
1448091800342	0.377532958984375	9.233245849609375	1.1038360595703125	-6.5332813677608375	0	-19.325256	-29.873657	7.3791504	118.652954	-84.32336	3.5742679
1448091800382	0.482269287109375	9.302276611328125	0.9062652587890625	-6.536919410519345	0	-21.37146	-30.212402	8.042908	118.47104	-84.154106	3.5890567
1448091800422	0.256134033203125	9.523651123046875	1.1514434814453125	-6.500359137979309	0	-19.325256	-30.212402	8.042908	118.30087	-84.02513	3.6612508
1448091800463	0.596527099609375	9.721221923828125	1.2895050048828125	-6.3996579652244865	0	-20.347595	-28.85437	7.0480347	118.15921	-83.87863	3.6974049
1448091800503	0.613189697265625	9.409393310546875	1.1800079345703125	-6.4595728201906075	0	-20.689392	-28.85437	6.715393	118.174866	-83.65361	3.8256493
1448091800543	0.246612548828125	9.457000732421875	0.9895782470703125	-6.536555424108057	0	-20.518494	-30.04303	6.881714	118.0766	-83.5336	3.864565
1448091800583	0.544158935546875	9.687896728515625	1.1109771728515625	-6.438658071030014	0	-21.200562	-30.04303	5.555725	117.72565	-83.402245	3.7846954
1448091800624	0.748870849609375	9.687896728515625	1.0705108642578125	-6.414362030401933	0	-20.518494	-28.004456	6.550598	117.17151	-83.20173	3.8535843
1448091800664	0.996429443359375	10.156829833984375	1.3014068603515625	-6.2774830937902735	0	-20.689392	-30.892944	4.725647	116.653564	-83.02038	3.981812
1448091800704	1.029754638671875	10.109222412109375	0.9514923095703125	-6.329464776809569	0	-20.689392	-29.533386	6.715393	116.26044	-82.85916	4.2248573
1448091800745	0.832183837890625	9.516510009765625	0.9800567626953125	-6.440779058483418	0	-20.178223	-28.344727	4.891968	115.84363	-82.87989	4.3480015
1448091800785	1.391571044921875	9.116607666015625	1.4037628173828125	-6.355231933809389	0	-22.053528	-28.5141	5.3894043	115.38403	-82.92401	4.4249883
1448091800825	0.779815673828125	9.066619873046875	0.8800811767578125	-6.531463861816914	0	-20.518494	-29.364014	4.2282104	115.32239	-82.87975	4.7088633
1448091800866	0.815521240234375	9.775970458984375	1.2609405517578125	-6.363863842381097	0	-22.393799	-30.212402	5.72052	115.02307	-82.79254	4.806129
1448091800906	0.691741943359375	10.425811767578125	1.0919342041015625	-6.312392233561509	0	-21.711731	-29.533386	4.3945313	114.75229	-82.60324	4.88735
1448091800946	0.060943603515625	10.920928955078125	1.4608917236328125	-6.279169733895996	0	-21.200562	-29.702759	4.560852	114.32294	-82.56688	4.7659
1448091800986	1.762908935546875	10.304412841796875	0.9562530517578125	-6.197780964761247	0	-22.2229	-29.364014	4.2282104	113.29379	-82.67465	4.533012
1448091801027	1.915252685546875	9.933074951171875	1.0990753173828125	-6.20835001506266	0	-23.075867	-29.873657	5.0582886	112.975464	-82.84666	4.5063076
1448091801067	1.053558349609375	9.502227783203125	1.2109527587890625	-6.376331950473613	0	-20.347595	-28.85437	5.3894043	112.641174	-83.24995	4.574487
1448091801107	0.717926025390625	8.407257080078125	0.8062896728515625	-6.655176071309937	0	-20.007324	-29.873657	4.3945313	112.574646	-83.40219	4.6242895
1448091801147	0.751251220703125	8.819061279296875	0.9705352783203125	-6.559932819902798	0	-21.029663	-28.5141	5.72052	112.47781	-83.43372	4.6145372
1448091801187	0.403717041015625	8.835723876953125	0.8396148681640625	-6.63184712991187	0	-21.711731	-29.873657	4.725647	112.12286	-83.53418	4.5573745
1448091801230	0.341827392578125	8.847625732421875	1.1728668212890625	-6.587544246166422	0	-21.711731	-29.873657	4.725647	111.97327	-83.576744	4.516422
1448091801270	0.905975341796875	9.621246337890625	0.7348785400390625	-6.450694724261937	0	-23.417664	-29.873657	3.730774	111.48331	-83.61852	4.291227
1448091801310	0.658416748046875	8.971405029296875	0.8443756103515625	-6.570213529305359	0	-20.518494	-30.3833	3.8970947	111.3988	-83.69436	4.2382746
1448091801350	0.427520751953125	9.323699951171875	0.8896026611328125	-6.54457250712723	0	-21.200562	-29.702759	4.2282104	111.41211	-83.70929	4.1327085
1448091801391	0.679840087890625	9.580780029296875	0.8205718994140625	-6.4777575560562255	0	-21.029663	-29.533386	3.0685425	111.356964	-83.72577	4.0697765
1448091801431	0.053802490234375	9.437957763671875	0.6301422119140625	-6.625106252431051	0	-21.029663	-29.873657	4.725647	111.45636	-83.78367	4.0028453
1448091801471	0.229949951171875	9.185638427734375	0.7063140869140625	-6.625106252431051	0	-21.029663	-29.873657	4.725647	111.45883	-83.775444	3.9585948
1448091801511	0.134735107421875	9.007110595703125	1.3371124267578125	-6.569478110128873	0	-21.029663	-30.552673	5.3894043	111.35376	-83.95151	3.7802174
1448091801551	1.598663330078125	9.352264404296875	0.2730865478515625	-6.456373995350976	0	-21.37146	-30.212402	3.730774	111.18695	-84.29742	3.636356
1448091801592	0.682220458984375	9.204681396484375	1.0609893798828125	-6.354542313560241	0	-21.37146	-30.212402	3.730774	111.05423	-84.52109	3.8095062
1448091801632	1.224945068359375	11.277984619140625	3.3604278564453125	-5.823716930671287	0	-20.689392	-29.193115	5.3894043	111.102844	-84.65649	3.7621548
1448091801672	1.391571044921875	9.118988037109375	3.5865631103515625	-6.051986545543894	0	-21.200562	-29.023743	4.891968	110.9483	-85.312744	3.2715085
1448091801712	1.332061767578125	9.799774169921875	0.9443511962890625	-6.331519118381694	0	-20.007324	-30.212402	5.0582886	110.82007	-85.48229	2.2663984
1448091801753	2.381805419921875	8.114471435546875	1.7774810791015625	-6.303207653349355	0	-19.154358	-30.04303	4.2282104	110.33801	-85.40237	1.8283591
1448091801793	-1.207794189453125	10.409149169921875	0.5944366455078125	-6.676777061561379	0	-21.200562	-30.04303	3.565979	111.52521	-85.52185	2.0645864
1448091801833	-1.433929443359375	11.454132080078125	0.1231231689453125	-6.621741163934567	0	-20.347595	-30.892944	6.0531616	112.46442	-86.07243	2.286902
1448091801873	-0.396087646484375	6.255401611328125	-1.2479705810546875	-7.6591961293252115	0	-19.836426	-30.04303	7.545471	112.91669	-87.330414	3.0194495
1448091801913	-1.743377685546875	8.171600341796875	0.1088409423828125	-7.2498318058469176	0	-20.86029	-29.364014	6.550598	113.10324	-88.152054	4.1769633
1448091801954	3.119720458984375	13.670257568359375	-0.0958709716796875	-5.720757729957743	0	-21.200562	-29.702759	7.2128296	114.010925	-88.30297	4.9739914
1448091801994	4.650299072265625	8.654815673828125	0.7420196533203125	-6.058649306699184	0	-22.2229	-27.323914	7.876587	116.826385	-88.67963	6.2057505
1448091802034	1.884307861328125	8.852386474609375	0.2421417236328125	-6.493167329857099	0	-21.711731	-28.173828	9.700012	121.151794	-89.29771	7.1644526
1448091802074	-1.198272705078125	10.861419677734375	1.2085723876953125	-6.509370957250381	0	-20.86029	-28.344727	9.535217	125.04196	-90.048546	7.4534526
1448091802114	-0.560333251953125	9.797393798828125	0.4254302978515625	-6.698145264166364	0	-21.200562	-26.644897	11.856079	128.35953	-91.36643	7.5211034
1448091802155	1.310638427734375	9.999725341796875	0.2445220947265625	-6.407352161983799	0	-18.814087	-27.323914	12.850952	130.10062	-91.80286	7.465743
1448091802195	1.539154052734375	10.166351318359375	-1.8097381591796875	-6.660846161583194	0	-20.178223	-27.323914	14.178467	130.89206	-91.68338	7.476535
1448091802235	1.655792236328125	8.397735595703125	-0.8885345458984375	-6.779226008215566	0	-20.518494	-29.364014	15.504456	131.75336	-92.31832	7.5144277
1448091802276	1.877166748046875	8.790496826171875	-0.5314788818359375	-6.622862464903426	0	-18.47229	-29.023743	15.504456	133.13321	-93.40457	7.4379783
1448091802316	1.315399169921875	9.542694091796875	-0.2196502685546875	-6.5449373882076545	0	-19.496155	-26.985168	14.5095825	135.00677	-94.27505	7.172721
1448091802356	1.639129638671875	9.480804443359375	-1.0765838623046875	-6.637475480558303	0	-19.154358	-28.004456	16.168213	136.66718	-94.82153	6.856903
1448091802396	1.562957763671875	9.452239990234375	-0.8147430419921875	-6.612784928347594	0	-17.108154	-28.344727	16.830444	139.05411	-95.59579	6.6159
1448091802437	1.472503662109375	9.373687744140625	-0.8552093505859375	-6.645748523631003	0	-17.279053	-28.5141	18.655396	139.96515	-95.86652	6.5427504
1448091802477	1.917633056640625	9.321319580078125	-1.3074798583984375	-6.655176071309937	0	-15.744019	-28.344727	20.809937	142.76654	-96.79502	6.4691176
1448091802517	1.470123291015625	9.583160400390625	-1.1289520263671875	-6.656309272933836	0	-17.108154	-26.985168	20.147705	144.89505	-97.45775	6.33933
1448091802557	1.384429931640625	9.687896728515625	-0.8956756591796875	-6.616513637379613	0	-15.232849	-27.154541	22.302246	145.94794	-97.7607	6.176433
1448091802598	1.101165771484375	9.111846923828125	-1.5693206787109375	-6.86658435095975	0	-14.21051	-26.135254	21.97113	149.09189	-98.54752	5.394275
1448091802638	1.241607666015625	9.549835205078125	-2.1191864013671875	-6.861730483412455	0	-14.379883	-27.664185	22.137451	150.83899	-98.93192	4.896558
1448091802678	1.055938720703125	9.178497314453125	-1.9906463623046875	-6.93539995945048	0	-12.333679	-27.323914	22.137451	151.63971	-99.10791	4.5991225
1448091802718	1.008331298828125	8.576263427734375	-1.5931243896484375	-6.979681123039774	0	-11.140442	-27.833557	22.966003	154.03156	-99.476555	3.492618
1448091802758	1.124969482421875	8.557220458984375	-1.7216644287109375	-6.985159674085713	0	-11.651611	-25.964355	23.796082	154.75208	-99.52543	3.1549244
1448091802799	-0.260406494140625	9.461761474609375	-2.7785491943359375	-7.022528726407078	0	-10.458374	-26.135254	22.634888	155.88397	-99.555405	2.481199
1448091802839	-0.919769287109375	8.823822021484375	-1.4360198974609375	-7.263367246806918	0	-8.753967	-28.5141	24.95575	157.11731	-99.483604	0.84577465
1448091802879	-0.405609130859375	7.897857666015625	-0.7885589599609375	-7.217451573355572	0	-9.265137	-29.023743	24.458313	157.16345	-99.2105	0.19529769
1448091802920	-1.095916748046875	12.544342041015625	-2.9237518310546875	-6.886895655051001	0	-7.0480347	-31.233215	23.960876	156.25653	-98.2242	-2.0286527
1448091802960	-1.721954345703125	12.839508056640625	-0.2386932373046875	-6.508288238866311	0	-7.0480347	-29.873657	23.960876	155.7384	-98.11751	-3.529076
1448091803000	-0.986419677734375	6.314910888671875	-1.6002655029296875	-7.875738609840724	0	-6.878662	-29.023743	23.796082	155.28821	-98.3239	-4.890717
1448091803040	-2.159942626953125	11.237518310546875	-2.1215667724609375	-7.1691753259793725	0	-5.1727295	-30.3833	23.46344	154.3966	-98.98698	-5.358077
1448091803081	-2.533660888671875	9.092803955078125	-1.2860565185546875	-7.510279781073301	0	-5.8547974	-29.364014	24.458313	153.52252	-99.17427	-6.482704
1448091803121	-2.940704345703125	8.680999755859375	-1.8716278076171875	-7.839707119709092	0	-5.5145264	-30.723572	23.132324	152.42029	-98.99459	-7.9656754
1448091803161	-2.595550537109375	9.830718994140625	-1.6907196044921875	-7.451934662305689	0	-4.319763	-30.552673	23.298645	151.37195	-99.25673	-8.772125
1448091803202	-2.331329345703125	9.611724853515625	-1.4574432373046875	-7.393520583464396	0	-3.9794922	-31.912231	23.298645	150.47754	-99.32606	-9.37289
1448091803242	-2.471771240234375	9.380828857421875	-0.9956512451171875	-7.3748503475747516	0	-4.4906616	-30.04303	24.458313	149.39618	-99.19237	-9.94452
1448091803282	-1.936187744140625	8.971405029296875	-1.0646820068359375	-7.363132120464786	0	-2.444458	-30.3833	23.46344	148.43103	-99.06256	-10.433294
1448091803322	-1.819549560546875	9.368927001953125	-1.2670135498046875	-7.300135579426358	0	-3.8085938	-31.402588	23.46344	147.75754	-98.84955	-10.838805
1448091803362	-2.088531494140625	9.675994873046875	-1.4431610107421875	-7.327829666111831	0	-4.4906616	-30.3833	23.796082	147.40826	-98.63887	-11.081622
1448091803403	-2.281341552734375	8.995208740234375	-0.9075775146484375	-7.3969756158165305	0	-4.319763	-30.552673	22.966003	147.18369	-98.53924	-11.172101
1448091803443	-2.852630615234375	9.366546630859375	-1.5836029052734375	-7.586169161096981	0	-3.1265259	-32.081604	22.468567	146.87885	-98.490906	-11.246694
1448091803483	-2.755035400390625	9.692657470703125	-0.9813690185546875	-7.366056402405846	0	-4.1503906	-31.742859	22.801208	146.487	-98.41671	-11.326378
1448091803523	-1.807647705078125	9.621246337890625	-0.9766082763671875	-7.1918360801698915	0	-4.66156	-32.93152	22.634888	145.89307	-98.35217	-11.265466
1448091803564	-2.493194580078125	9.168975830078125	-1.0980072021484375	-7.444868845136779	0	-5.5145264	-32.081604	22.468567	145.22241	-98.366135	-11.164975
1448091803604	-2.916900634765625	9.442718505859375	-0.9409027099609375	-7.443357489986942	0	-4.66156	-30.552673	21.97113	144.57117	-98.42059	-11.150014
1448091803645	-2.352752685546875	9.261810302734375	-0.8052215576171875	-7.336005727447278	0	-4.66156	-32.252502	21.307373	143.6803	-98.404785	-11.088245
1448091803685	-1.550567626953125	9.623626708984375	-0.6838226318359375	-7.088284997982148	0	-4.4906616	-30.3833	21.473694	142.85913	-98.25266	-10.946307
1448091803726	-1.874298095703125	9.418914794921875	-1.0742034912109375	-7.262899308486194	0	-5.5145264	-33.102417	22.137451	142.5993	-98.20133	-10.5390835
1448091803766	-1.667205810546875	9.502227783203125	-0.9170989990234375	-7.176405525510933	0	-5.8547974	-30.723572	21.142578	141.88687	-98.509544	-9.938159
1448091803806	-1.502960205078125	9.542694091796875	-0.5886077880859375	-7.076924909694779	0	-8.241272	-31.062317	20.809937	141.4768	-98.96461	-9.382069
1448091803846	-1.291107177734375	9.461761474609375	-1.3574676513671875	-7.196391838663473	0	-8.241272	-31.062317	20.809937	141.16296	-99.25327	-9.212979
1448091803886	-0.427032470703125	10.328216552734375	-1.4193572998046875	-6.894242401382247	0	-7.3898315	-30.552673	23.62976	140.55792	-99.64455	-9.086483
1448091803927	-0.391326904296875	9.471282958984375	-1.1741790771484375	-6.994878645110958	0	-8.241272	-30.3833	20.809937	140.68527	-100.01125	-8.941421
1448091803967	-2.067108154296875	9.387969970703125	-2.1644134521484375	-7.535818556474927	0	-8.071899	-31.233215	22.634888	140.81293	-100.61729	-8.532484
1448091804007	-1.010223388671875	10.285369873046875	-2.0311126708984375	-7.11512571747814	0	-7.901001	-30.723572	22.468567	140.66498	-100.94718	-8.454286
1448091804047	-0.427032470703125	8.680999755859375	-1.9787445068359375	-7.301560523600413	0	-7.7301025	-29.533386	23.62976	140.86462	-100.99666	-8.724959
1448091804088	-0.755523681640625	8.747650146484375	-2.5143280029296875	-7.466130290323315	0	-7.7301025	-29.533386	23.62976	141.13495	-101.101715	-8.786196
1448091804128	-2.343231201171875	8.533416748046875	-1.3741302490234375	-7.612048725171461	0	-8.753967	-29.873657	23.298645	141.8465	-101.384865	-8.646464
1448091804168	-1.600555419921875	9.823577880859375	-1.7383270263671875	-7.2600934842866955	0	-7.559204	-29.702759	23.132324	141.63654	-102.082	-7.4093766
1448091804209	-1.624359130859375	9.226104736328125	-2.5690765380859375	-7.563238890552212	0	-9.094238	-29.533386	21.97113	140.96042	-102.42679	-6.57788
1448091804249	-0.900726318359375	9.845001220703125	-2.4786224365234375	-7.263835271241101	0	-8.753967	-28.173828	23.960876	140.22125	-102.54843	-6.0782247
1448091804289	-0.396087646484375	10.047332763671875	-2.3238983154296875	-7.099692760777012	0	-9.776306	-29.873657	23.298645	139.47467	-102.6489	-5.8217816
1448091804329	-0.174713134765625	9.533172607421875	-3.1356048583984375	-7.312034984960741	0	-9.265137	-29.364014	24.127197	138.87921	-102.84763	-5.6952868
1448091804369	-0.084259033203125	9.349884033203125	-2.1239471435546875	-7.134208214268478	0	-10.458374	-26.81427	23.960876	138.9447	-103.02786	-5.64491
1448091804410	-0.198516845703125	9.673614501953125	-2.0525360107421875	-7.08216214137525	0	-9.605408	-27.323914	23.46344	139.30457	-103.2043	-5.6017632
1448091804450	0.129974365234375	9.352264404296875	-1.9930267333984375	-7.069957524971007	0	-10.458374	-28.173828	23.62976	139.60999	-103.45072	-5.505879
1448091804490	0.339447021484375	9.083282470703125	-2.9999237060546875	-7.272274490888588	0	-10.287476	-28.344727	23.796082	139.87189	-103.851875	-5.3842125
1448091804531	-1.400604248046875	8.857147216796875	-2.4976654052734375	-7.579746263564541	0	-10.287476	-29.023743	24.127197	140.03659	-104.12236	-5.2006826
1448091804571	-0.065216064453125	9.702178955078125	-3.0665740966796875	-7.2433230360444245	0	-10.969543	-29.023743	24.127197	140.26596	-104.432915	-4.764609
1448091804611	-19.322418212890625	-8.336273193359375	-2.2620086669921875	NaN	0	-11.140442	-27.833557	23.62976	140.50403	-104.46009	-3.7500825
1448091804652	13.319610595703125	11.589813232421875	-4.3591156005859375	-5.273355220866728	0	-13.015747	-26.985168	24.790955	143.39355	-104.7688	0.4571067
1448091804692	-0.039031982421875	8.883331298828125	-4.8518524169921875	-7.8084891673848364	0	-14.039612	-25.964355	24.790955	139.03836	-105.22631	0.9317062
1448091804732	-0.122344970703125	9.902130126953125	-2.4619598388671875	-7.101452071072117	0	-14.550781	-26.135254	24.95575	138.53665	-105.18089	0.038693026
1448091804772	-0.348480224609375	8.597686767578125	-2.6000213623046875	-7.429798539914605	0	-14.379883	-25.28534	24.458313	139.61694	-105.69152	-1.1003753
1448091804812	-0.712677001953125	9.378448486328125	-2.7023773193359375	-7.364593823709885	0	-13.357544	-26.985168	26.116943	139.67923	-105.78515	-1.4117056
1448091804853	0.289459228515625	9.559356689453125	-3.3403167724609375	-7.255423968145708	0	-11.651611	-28.004456	25.12207	139.43225	-105.88522	-1.2560649
1448091804893	0.041900634765625	8.407257080078125	-3.2712860107421875	-7.5311062724539175	0	-13.868713	-25.454712	23.298645	139.426	-106.12055	-1.283324
1448091804933	0.260894775390625	9.326080322265625	-3.4807586669921875	-7.335524033813597	0	-13.015747	-26.985168	24.790955	139.3223	-106.137856	-1.4453548
1448091804973	0.189483642578125	9.318939208984375	-3.0808563232421875	-7.27133541256138	0	-12.8463745	-27.154541	25.288391	139.5401	-105.90851	-1.6506752
1448091805014	-0.562713623046875	9.197540283203125	-2.9499359130859375	-7.422299107270579	0	-12.504578	-26.81427	23.960876	140.15308	-105.71035	-1.8846661
1448091805054	-0.693634033203125	9.207061767578125	-3.2403411865234375	-7.510279781073301	0	-12.8463745	-26.475525	26.61438	140.76001	-105.63264	-2.1086617
1448091805094	-0.810272216796875	9.349884033203125	-3.3641204833984375	-7.514949239520163	0	-12.8463745	-26.475525	26.61438	140.96387	-105.68391	-2.1502042
1448091805134	-0.669830322265625	8.935699462890625	-2.8428192138671875	-7.477855718899601	0	-10.969543	-27.323914	25.12207	141.19705	-105.8522	-2.1399276
1448091805175	0.070465087890625	9.290374755859375	-3.2355804443359375	-7.331673859806305	0	-12.333679	-27.664185	25.785828	141.18793	-106.12407	-1.8965689
1448091805215	0.917877197265625	9.518890380859375	-3.0237274169921875	-7.083910123952268	0	-11.140442	-25.794983	26.283264	141.16965	-106.35123	-1.6670269
1448091805255	0.348968505859375	9.030914306640625	-3.2141571044921875	-7.3235120619664285	0	-12.164307	-26.475525	25.288391	141.48303	-106.492584	-1.6374005
1448091805295	0.208526611328125	9.361785888671875	-3.1022796630859375	-7.263367246806918	0	-11.82251	-26.135254	25.950623	142.75934	-106.80795	-1.6726297
1448091805335	-0.117584228515625	9.007110595703125	-3.0641937255859375	-7.393027411159638	0	-13.357544	-25.28534	26.116943	143.6441	-106.794334	-1.6196946
1448091805376	-0.081878662109375	8.921417236328125	-3.3022308349609375	-7.453451526304	0	-10.800171	-25.794983	24.95575	144.48264	-106.76635	-1.6229964
1448091805416	-0.184234619140625	8.431060791015625	-3.3617401123046875	-7.5963769208583685	0	-11.31134	-25.62561	26.7807	145.3216	-106.623825	-1.8021538
1448091805456	-0.531768798828125	8.833343505859375	-3.4379119873046875	-7.60122866624993	0	-11.482239	-25.454712	25.619507	146.02798	-106.45014	-2.0357819
1448091805496	-0.396087646484375	9.088043212890625	-3.4355316162109375	-7.513910760221675	0	-9.776306	-26.475525	27.278137	146.48346	-106.10284	-2.2503898
1448091805537	0.008575439453125	10.459136962890625	-2.3738861083984375	-6.96163492219231	0	-9.094238	-27.494812	25.950623	147.24689	-105.85985	-2.6180513
1448091805577	1.079742431640625	11.168487548828125	-3.0499114990234375	-6.7737270251714605	0	-10.800171	-26.81427	27.278137	148.5575	-105.29629	-3.0278618
1448091805617	-0.824554443359375	7.935943603515625	-2.6785736083984375	-7.701174733751442	0	-10.458374	-26.135254	26.61438	149.57983	-104.600945	-3.4200459
1448091805657	-1.003082275390625	8.592926025390625	-0.9480438232421875	-7.229431024795266	0	-7.0480347	-26.81427	27.609253	151.16022	-103.572426	-3.9643514
1448091805698	-0.177093505859375	9.421295166015625	-3.3331756591796875	-7.375339832725308	0	-8.241272	-27.323914	26.116943	151.70636	-102.909	-3.755868
1448091805738	-1.638641357421875	9.511749267578125	-2.4595794677734375	-7.479900955778162	0	-6.365967	-28.5141	25.288391	151.99988	-102.723526	-3.7058794
1448091805778	-1.357757568359375	9.471282958984375	-1.4764862060546875	-7.230354828326638	0	-8.241272	-28.004456	24.458313	153.35803	-101.66863	-4.3235726
1448091805818	-1.055450439453125	9.164215087890625	-1.8882904052734375	-7.312512142051915	0	-6.878662	-29.364014	25.453186	153.54889	-101.20762	-4.6006007
1448091805858	-0.788848876953125	9.528411865234375	-1.3979339599609375	-7.097055937187898	0	-7.218933	-29.023743	25.453186	153.54132	-100.97842	-4.6584415
1448091805899	-0.924530029296875	9.342742919921875	-1.2551116943359375	-7.1302029449483655	0	-6.365967	-29.873657	24.95575	153.54565	-100.051544	-5.105613
1448091805939	-1.093536376953125	9.426055908203125	-1.4098358154296875	-7.194568581758095	0	-6.365967	-29.873657	24.95575	153.64307	-99.78992	-5.219376
1448091805979	-1.150665283203125	9.761688232421875	-1.0408782958984375	-7.055210414114294	0	-6.365967	-30.212402	23.62976	154.17273	-98.90528	-5.3508344
1448091806019	-1.110198974609375	9.404632568359375	-0.7361907958984375	-7.057374145718187	0	-5.8547974	-30.04303	23.46344	154.4336	-98.119736	-5.3826814
1448091806060	-1.124481201171875	9.026153564453125	-0.2434539794921875	-7.039251380149392	0	-7.0480347	-31.57196	22.302246	154.68353	-97.23588	-5.2528033
1448091806100	-0.634124755859375	9.559356689453125	-1.0980072021484375	-7.00888222805707	0	-6.025696	-30.552673	21.97113	154.88055	-96.5557	-4.9696784
1448091806140	-1.150665283203125	9.671234130859375	-0.5576629638671875	-6.984737869457641	0	-5.5145264	-31.742859	21.473694	155.32556	-96.09085	-4.715395
1448091806180	-0.955474853515625	9.495086669921875	-0.4981536865234375	-6.970853514525176	0	-5.8547974	-31.062317	22.801208	155.63147	-95.73021	-4.5649414
1448091806221	-0.779327392578125	9.849761962890625	-0.6195526123046875	-6.89955993181934	0	-6.878662	-32.762146	21.473694	155.81128	-95.53608	-4.567342
1448091806261	-1.314910888671875	9.668853759765625	-0.5671844482421875	-7.016123620803866	0	-5.8547974	-32.081604	22.801208	156.055	-95.43247	-4.7526555
1448091806301	-1.372039794921875	9.485565185546875	-0.4672088623046875	-7.041402623984986	0	-6.196594	-31.742859	20.809937	156.36548	-95.39129	-4.975878
1448091806342	-1.214935302734375	9.633148193359375	-0.6647796630859375	-7.022101260991654	0	-5.5145264	-30.723572	22.468567	156.37195	-95.33975	-5.150573
1448091806382	-1.122100830078125	9.454620361328125	-0.4576873779296875	-7.000386866020274	0	-5.1727295	-30.723572	21.80481	156.3722	-95.14952	-5.203326
1448091806422	-0.567474365234375	9.590301513671875	-0.2220306396484375	-6.839986356670444	0	-5.001831	-30.212402	23.298645	156.40295	-94.98808	-5.1738267
1448091806462	-0.569854736328125	9.556976318359375	-0.4695892333984375	-6.888118828460115	0	-6.7077637	-31.57196	22.634888	156.78735	-94.63002	-5.03066
1448091806502	-0.641265869140625	9.668853759765625	-0.6433563232421875	-6.9110462416693395	0	-5.001831	-32.252502	22.302246	157.26953	-94.40696	-4.895382
1448091806543	-0.798370361328125	9.590301513671875	-0.6695404052734375	-6.956619167245099	0	-5.001831	-33.27179	20.976257	157.86926	-94.26279	-4.8347845
1448091806583	-0.769805908203125	9.485565185546875	-0.3077239990234375	-7.002083879713773	0	-6.025696	-32.93152	21.640015	158.21484	-94.07366	-4.822111
1448091806623	-0.734100341796875	9.649810791015625	-0.5290985107421875	-6.910635231830925	0	-5.1727295	-31.402588	22.137451	158.16138	-93.84943	-4.7847548
1448091806663	-0.379425048828125	9.559356689453125	-0.8195037841796875	-6.915159553363528	0	-6.196594	-31.742859	21.473694	157.92285	-93.84381	-4.641359
1448091806703	-1.162567138671875	9.249908447265625	-0.7147674560546875	-7.091351603897156	0	-4.66156	-31.57196	20.3125	157.89362	-93.93342	-4.2776313
1448091806744	-0.465118408203125	9.537933349609375	-0.6266937255859375	-6.9003788769915815	0	-5.1727295	-32.421875	22.137451	156.87195	-93.86301	-3.9993386
1448091806784	-0.743621826171875	9.545074462890625	-0.4648284912109375	-6.919278724923772	0	-6.025696	-31.912231	22.302246	156.47449	-93.88249	-3.793295
1448091806824	-0.812652587890625	9.671234130859375	-1.0932464599609375	-7.019964917502147	0	-6.7077637	-31.912231	21.640015	154.53479	-94.22855	-3.3537037
1448091806864	-0.067596435546875	10.087799072265625	0.3206939697265625	-6.5908735491890305	0	-7.0480347	-32.252502	21.97113	153.29608	-94.42719	-3.0034876
1448091806905	-0.981658935546875	10.356781005859375	-1.9144744873046875	-7.075181397330718	0	-7.559204	-30.723572	21.473694	152.40088	-94.384224	-2.7129343
1448091806945	-0.974517822265625	9.273712158203125	-1.2098846435546875	-7.144024237250175	0	-8.071899	-30.212402	21.97113	151.68524	-94.66552	-2.5416563
1448091806985	-0.162811279296875	9.409393310546875	-0.9694671630859375	-6.929602456003122	0	-8.753967	-31.233215	20.976257	150.88483	-94.9916	-2.2751284
1448091807025	-0.167572021484375	9.730743408203125	-1.3979339599609375	-6.949112042587438	0	-8.92334	-31.402588	21.142578	150.44122	-95.151375	-1.8847437
1448091807065	-0.139007568359375	9.597442626953125	-1.0503997802734375	-6.90693876490368	0	-11.140442	-30.212402	21.307373	150.1825	-95.26963	-1.4674354
1448091807105	-0.148529052734375	9.873565673828125	-0.4362640380859375	-6.758851227051709	0	-9.436035	-29.873657	22.302246	149.92484	-95.489044	-1.1109017
1448091807146	-0.148529052734375	9.873565673828125	-0.4362640380859375	-6.758851227051709	0	-9.436035	-29.873657	22.302246	149.92484	-95.489044	-1.1109017
1448091807186	0.425140380859375	9.561737060546875	-0.7052459716796875	-6.760022991334937	0	-10.969543	-30.04303	21.473694	148.29471	-95.889595	-0.2213926
1448091807226	0.672698974609375	9.780731201171875	-1.0361175537109375	-6.7378359781061175	0	-10.629272	-30.04303	21.80481	147.7248	-96.11338	0.10094341
1448091807266	0.829803466796875	9.656951904296875	-0.9599456787109375	-6.720046956168934	0	-12.333679	-29.702759	21.80481	148.00116	-96.36886	0.15244316
1448091807306	1.415374755859375	9.923553466796875	-1.6335906982421875	-6.691260929463044	0	-12.504578	-28.5141	21.307373	148.74432	-96.717834	0.15601367
1448091807347	0.603668212890625	9.264190673828125	-1.7169036865234375	-6.95161222416009	0	-11.482239	-29.533386	22.634888	149.96973	-97.16008	0.10565967
1448091807387	-0.029510498046875	9.307037353515625	-1.4550628662109375	-7.009733183496609	0	-9.776306	-29.533386	22.966003	151.49203	-97.648094	0.048259567
1448091807427	-0.588897705078125	9.711700439453125	-1.6312103271484375	-7.069522652312038	0	-10.287476	-29.023743	23.796082	152.69824	-98.10308	0.12343612
1448091807468	-0.127105712890625	9.471282958984375	-1.6669158935546875	-7.035812864087343	0	-8.92334	-29.023743	23.132324	153.57813	-98.54412	0.18931015
1448091807508	0.484649658203125	9.287994384765625	-1.8383026123046875	-6.989803693792527	0	-9.265137	-29.364014	25.453186	154.20996	-98.84155	0.19893138
1448091807548	0.479888916015625	9.221343994140625	-1.9858856201171875	-7.0289486017790015	0	-10.458374	-29.193115	24.293518	154.7815	-99.067924	0.1854801
1448091807588	0.060943603515625	9.004730224609375	-2.0406341552734375	-7.156120859759209	0	-9.265137	-28.004456	25.12207	155.09857	-99.40914	0.18424125
1448091807629	0.394195556640625	9.297515869140625	-2.0715789794921875	-7.04614126162171	0	-9.605408	-28.004456	25.785828	155.49347	-99.78286	0.19157948
1448091807669	0.467987060546875	9.257049560546875	-2.0834808349609375	-7.042263590274727	0	-8.41217	-28.85437	24.624634	155.87952	-99.98692	0.25455087
1448091807709	0.165679931640625	9.490325927734375	-2.6309661865234375	-7.156120859759209	0	-9.094238	-28.173828	26.61438	156.10889	-100.209526	0.36140224
1448091807749	0.189483642578125	9.523651123046875	-2.3596038818359375	-7.094860542790096	0	-8.753967	-28.85437	26.283264	156.4284	-100.44664	0.26673773
1448091807790	-0.050933837890625	9.533172607421875	-2.4191131591796875	-7.1489458444802185	0	-9.776306	-29.193115	24.624634	156.46063	-100.5298	0.16988583
1448091807830	0.365631103515625	9.623626708984375	-2.0834808349609375	-6.994878645110958	0	-10.629272	-28.004456	26.116943	155.80927	-100.68031	0.20806767
1448091807870	0.237091064453125	9.330841064453125	-2.5547943115234375	-7.1583670386873415	0	-9.776306	-27.494812	25.619507	154.9336	-101.26905	0.4075139
1448091807910	0.639373779296875	9.457000732421875	-2.3286590576171875	-7.019537845310664	0	-8.92334	-27.664185	25.12207	154.2749	-101.974365	0.53627497
1448091807951	0.665557861328125	9.195159912109375	-2.4262542724609375	-7.0799787389927875	0	-10.458374	-27.494812	24.95575	153.94214	-102.67442	0.7772951
1448091807991	0.139495849609375	9.080902099609375	-3.1332244873046875	-7.339380216131108	0	-11.31134	-26.644897	26.116943	153.35522	-103.570694	1.0042462
1448091808031	-0.034271240234375	9.071380615234375	-3.2355804443359375	-7.3979636782062625	0	-10.287476	-26.644897	26.7807	152.5332	-104.63945	0.92215794
1448091808072	0.037139892578125	8.892852783203125	-3.5831146240234375	-7.49426826520116	0	-11.31134	-26.985168	27.442932	151.79675	-105.49963	0.54460233
1448091808112	0.079986572265625	8.657196044921875	-3.5045623779296875	-7.51910787121402	0	-10.287476	-26.644897	25.453186	150.72333	-106.22444	0.0033698448
1448091808152	0.087127685546875	8.733367919921875	-3.2974700927734375	-7.4564881914480505	0	-9.947205	-26.304626	27.111816	149.91046	-106.30856	-0.5740409
1448091808192	0.089508056640625	8.481048583984375	-2.8737640380859375	-7.419804532738705	0	-8.753967	-26.475525	27.278137	149.36292	-106.12356	-1.0983624
1448091808233	0.258514404296875	9.540313720703125	-3.0165863037109375	-7.202326239181245	0	-9.265137	-27.323914	25.453186	148.58118	-104.95271	-1.3454005
1448091808273	1.486785888671875	12.463409423828125	-1.6669158935546875	-6.301849021835458	0	-9.776306	-28.5141	25.950623	148.27893	-103.798386	-1.0093663
1448091808313	0.301361083984375	9.956878662109375	-2.2572479248046875	-6.977997549797946	0	-9.605408	-27.664185	24.458313	147.75513	-103.501	-0.70210135
1448091808353	-0.500823974609375	7.743133544921875	-1.3027191162109375	-7.369472499416256	0	-11.993408	-26.304626	25.453186	147.40338	-103.45495	-1.1582347
1448091808393	-0.269927978515625	9.135650634765625	-1.4407806396484375	-7.081725320936473	0	-10.118103	-29.873657	25.288391	146.50226	-102.70702	-1.466916
1448091808434	-0.158050537109375	10.023529052734375	-1.6740570068359375	-6.967917078724877	0	-10.118103	-29.873657	25.288391	145.52939	-102.463844	-1.3176819
1448091808474	-0.110443115234375	9.299896240234375	-0.6862030029296875	-6.890566714512621	0	-10.629272	-29.702759	23.46344	142.97675	-102.237015	-1.1452019
1448091808514	-0.027130126953125	9.583160400390625	-0.6076507568359375	-6.8152157858607385	0	-11.31134	-29.702759	22.468567	142.41946	-102.106606	-1.1928797
1448091808554	-0.122344970703125	9.111846923828125	-1.7549896240234375	-7.116895122304017	0	-12.504578	-30.212402	21.640015	140.59784	-101.97202	-1.2319778
1448091808595	-0.934051513671875	10.087799072265625	-1.2408294677734375	-6.993609048926691	0	-11.140442	-30.212402	21.97113	139.58972	-102.31841	-1.4980739
1448091808635	-1.224456787109375	9.240386962890625	-0.9480438232421875	-7.148050329119453	0	-12.504578	-27.833557	22.634888	139.2099	-102.45555	-1.7513576
1448091808675	-0.477020263671875	9.440338134765625	-1.8621063232421875	-7.141790147899561	0	-13.015747	-29.364014	22.801208	137.63254	-102.84249	-2.1681054
1448091808715	-0.612701416015625	10.302032470703125	-2.0453948974609375	-7.041833073616048	0	-11.82251	-28.85437	21.307373	137.04205	-103.16168	-2.2406957
1448091808756	-0.824554443359375	8.764312744140625	-2.0001678466796875	-7.369472499416256	0	-12.675476	-30.04303	21.142578	136.00708	-104.052986	-2.901892
1448091808796	-1.174468994140625	10.316314697265625	-2.8190155029296875	-7.292076148413916	0	-12.675476	-29.023743	22.468567	135.41269	-104.56818	-3.216998
1448091808836	-0.572235107421875	8.845245361328125	-2.2501068115234375	-7.3524395646611005	0	-10.969543	-30.04303	23.132324	135.30719	-104.97609	-3.7640595
1448091808876	-1.324432373046875	9.468902587890625	-2.9356536865234375	-7.524316816799389	0	-11.993408	-30.04303	21.80481	135.68707	-105.23249	-4.3435926
1448091808917	-1.912384033203125	9.637908935546875	-2.0715789794921875	-7.428797248960384	0	-11.31134	-28.683472	22.137451	136.02664	-105.542076	-4.799287
1448091808957	-1.238739013671875	8.757171630859375	-1.7121429443359375	-7.3969756158165305	0	-10.800171	-29.873657	23.62976	136.43927	-105.65196	-5.069117
1448091808997	-1.141143798828125	10.044952392578125	-3.0927581787109375	-7.395987958414074	0	-10.629272	-29.364014	23.796082	136.45935	-105.77114	-4.8502946
1448091809037	-1.293487548828125	8.197784423828125	-1.7906951904296875	-7.545272583509784	0	-10.287476	-30.04303	23.46344	136.65906	-105.88545	-4.8077326
1448091809078	-1.602935791015625	9.368927001953125	-2.4333953857421875	-7.497358603957716	0	-10.118103	-28.173828	23.960876	137.22858	-106.02243	-4.8385816
1448091809118	-1.793365478515625	9.335601806640625	-2.1096649169921875	-7.475812276689957	0	-11.482239	-30.552673	23.298645	137.46356	-106.295204	-4.755854
1448091809158	-1.141143798828125	8.921417236328125	-2.1168060302734375	-7.426795930916462	0	-10.458374	-28.5141	22.302246	137.81528	-106.54255	-4.791747
1448091809198	-1.414886474609375	9.783111572265625	-2.2810516357421875	-7.339380216131108	0	-10.969543	-28.344727	23.46344	138.02704	-106.81006	-4.7087173
1448091809239	-0.726959228515625	9.054718017578125	-2.6047821044921875	-7.414325625148671	0	-10.118103	-27.833557	23.62976	138.1532	-107.12237	-4.672164
1448091809279	-1.541046142578125	9.242767333984375	-2.4286346435546875	-7.510279781073301	0	-10.458374	-29.193115	23.960876	138.43616	-107.66767	-4.5905485
1448091809319	-1.122100830078125	9.947357177734375	-2.5928802490234375	-7.31012726859819	0	-9.094238	-28.173828	24.293518	138.31726	-108.23789	-4.4618607
1448091809360	-0.338958740234375	9.285614013671875	-3.3498382568359375	-7.4408407103423295	0	-11.482239	-28.5141	24.624634	137.86203	-108.44377	-4.367111
1448091809400	0.013336181640625	9.683135986328125	-3.6283416748046875	-7.41532085644883	0	-10.969543	-27.323914	24.458313	137.53183	-108.458984	-4.3775167
1448091809440	0.529876708984375	9.368927001953125	-3.0427703857421875	-7.188197180494316	0	-11.993408	-28.004456	24.458313	137.71204	-108.52403	-4.3121142
1448091809481	-1.081634521484375	9.183258056640625	-3.1855926513671875	-7.58938758712904	0	-11.140442	-29.533386	25.288391	138.83862	-108.154465	-3.7391064
1448091809521	-0.976898193359375	8.964263916015625	-3.6426239013671875	-7.7221955715626915	0	-12.504578	-28.85437	24.95575	138.90314	-107.90178	-3.4095337
1448091809561	-0.700775146484375	8.707183837890625	-3.3165130615234375	-7.64098331418443	0	-9.947205	-28.344727	23.796082	138.45343	-107.57158	-2.797216
1448091809601	-0.358001708984375	8.826202392578125	-3.5664520263671875	-7.592610691709067	0	-10.800171	-28.5141	24.624634	137.90381	-107.2919	-2.372625
1448091809642	-0.557952880859375	8.821441650390625	-3.1475067138671875	-7.5447463231092815	0	-12.8463745	-28.5141	23.62976	137.72159	-106.92864	-1.8473413
1448091809682	-0.250885009765625	9.214202880859375	-2.7904510498046875	-7.322074527945213	0	-12.8463745	-28.5141	23.62976	137.68494	-107.010605	-1.7484529
1448091809722	0.415618896484375	9.266571044921875	-3.0665740966796875	-7.234516050217924	0	-12.8463745	-27.154541	23.62976	137.76208	-107.324646	-1.6282185
1448091809763	0.068084716796875	9.397491455078125	-2.6333465576171875	-7.192746596639778	0	-13.015747	-27.664185	24.127197	138.20273	-107.3897	-1.6461875
1448091809803	0.201385498046875	9.309417724609375	-2.6047821044921875	-7.178669042352127	0	-12.504578	-28.173828	24.293518	138.34561	-107.326614	-1.6774608
1448091809843	0.215667724609375	9.309417724609375	-2.6047821044921875	-7.178669042352127	0	-12.504578	-28.173828	24.293518	138.34561	-107.326614	-1.6774608
1448091809883	0.182342529296875	9.042816162109375	-2.9404144287109375	-7.299660778021272	0	-12.333679	-26.985168	24.790955	138.75815	-107.319595	-1.4937131
1448091809924	-0.203277587890625	9.033294677734375	-2.9142303466796875	-7.374360960932486	0	-14.72168	-26.985168	24.790955	138.99768	-107.35701	-1.4619882
1448091809964	-0.148529052734375	9.099945068359375	-3.3855438232421875	-7.447389921947853	0	-13.357544	-27.664185	25.12207	139.47946	-107.5827	-1.3106244
1448091810004	-0.803131103515625	9.328460693359375	-3.3665008544921875	-7.535294486566907	0	-13.697815	-28.004456	25.12207	139.7475	-107.71622	-1.3552649
1448091810044	-0.358001708984375	9.226104736328125	-3.0094451904296875	-7.386133549723512	0	-13.015747	-27.323914	25.12207	139.55301	-107.852165	-1.4452541
1448091810084	0.075225830078125	8.814300537109375	-3.2736663818359375	-7.436819422530524	0	-11.482239	-27.154541	24.95575	139.49478	-107.848434	-1.2867483
1448091810125	-0.196136474609375	8.980926513671875	-3.1784515380859375	-7.438829212745338	0	-12.675476	-26.985168	23.796082	139.44873	-107.84852	-1.123638
1448091810166	-0.153289794921875	9.054718017578125	-3.4022064208984375	-7.461558038380163	0	-12.675476	-26.985168	23.796082	139.38715	-107.89446	-1.0552795
1448091810206	-0.600799560546875	9.387969970703125	-3.7640228271484375	-7.565362042306124	0	-13.015747	-26.644897	25.453186	138.9985	-108.195274	-0.8512334
1448091810246	-0.412750244140625	9.223724365234375	-3.5688323974609375	-7.517027611183081	0	-12.675476	-27.664185	25.785828	138.48947	-108.33237	-0.79478794
1448091810286	-0.286590576171875	9.204681396484375	-3.5402679443359375	-7.487586658948128	0	-11.82251	-25.794983	23.62976	138.21057	-108.35802	-0.656428
1448091810327	0.018096923828125	9.292755126953125	-3.3379364013671875	-7.362645080322866	0	-12.504578	-26.81427	25.288391	138.0177	-108.30953	-0.34093946
1448091810367	0.199005126953125	9.183258056640625	-3.1570281982421875	-7.311557919122091	0	-13.1866455	-27.154541	24.95575	138.1037	-108.27036	0.05454418
1448091810407	-0.036651611328125	8.892852783203125	-2.9213714599609375	-7.3704494069713045	0	-15.061951	-26.985168	25.12207	138.39688	-108.36242	0.31045753
1448091810447	-0.162811279296875	8.938079833984375	-2.9308929443359375	-7.389085654571712	0	-13.528442	-28.173828	24.624634	138.66626	-108.51568	0.33866665
1448091810488	-0.205657958984375	9.030914306640625	-3.0142059326171875	-7.395987958414074	0	-14.72168	-26.985168	25.12207	138.83618	-108.687805	0.28172255
1448091810528	-0.248504638671875	8.890472412109375	-2.7761688232421875	-7.384658846669615	0	-13.528442	-27.154541	25.950623	138.73553	-108.75039	0.1948281
1448091810568	0.051422119140625	9.047576904296875	-2.8237762451171875	-7.301560523600413	0	-14.891052	-25.794983	23.62976	138.42896	-108.64874	0.12548605
1448091810608	0.415618896484375	9.549835205078125	-2.8975677490234375	-7.148050329119453	0	-14.21051	-26.475525	24.624634	138.17853	-108.41298	0.16454631
1448091810649	0.634613037109375	9.485565185546875	-3.0308685302734375	-7.144024237250175	0	-14.72168	-26.644897	24.458313	138.17316	-108.09695	0.29424924
1448091810689	0.165679931640625	9.138031005859375	-2.9166107177734375	-7.2793287008066265	0	-13.528442	-25.794983	23.960876	138.3045	-107.87639	0.37453264
1448091810729	-0.039031982421875	9.161834716796875	-2.8999481201171875	-7.312034984960741	0	-14.550781	-26.475525	25.619507	138.47559	-107.76757	0.29212502
1448091810769	0.329925537109375	9.278472900390625	-2.8642425537109375	-7.2096487328813685	0	-13.697815	-26.304626	23.46344	138.78085	-107.764206	0.26528203
1448091810810	0.003814697265625	9.183258056640625	-2.7618865966796875	-7.254957486519405	0	-13.868713	-26.135254	23.62976	139.26556	-107.801476	0.22724953
1448091810850	-0.003326416015625	9.209442138671875	-2.6166839599609375	-7.239611148700619	0	-14.72168	-28.344727	23.796082	139.67157	-107.798874	0.053970452
1448091810890	0.029998779296875	9.335601806640625	-2.5405120849609375	-7.194112966352452	0	-12.8463745	-26.135254	23.960876	139.87799	-107.6603	-0.0827341
1448091810930	0.172821044921875	9.452239990234375	-2.5071868896484375	-7.138665565740451	0	-14.72168	-26.985168	25.12207	140.2732	-107.27804	-0.15423952
1448091810971	0.113311767578125	9.380828857421875	-2.3929290771484375	-7.141790147899561	0	-14.21051	-27.494812	23.960876	140.32907	-107.12254	-0.1165658
1448091811011	0.149017333984375	9.230865478515625	-2.4262542724609375	-7.169626632664056	0	-12.504578	-26.135254	24.624634	140.40112	-106.816246	-0.011619859
1448091811051	0.244232177734375	9.373687744140625	-2.6190643310546875	-7.161064970781843	0	-14.21051	-27.154541	23.960876	140.77502	-106.55712	0.27683377
1448091811091	0.294219970703125	9.454620361328125	-2.5476531982421875	-7.123097226796837	0	-13.868713	-26.81427	24.624634	140.86316	-106.51764	0.3856593
1448091811133	0.244232177734375	9.423675537109375	-2.4714813232421875	-7.123984412257029	0	-13.1866455	-26.81427	24.95575	141.3393	-106.380775	0.681406
1448091811173	0.172821044921875	9.433197021484375	-2.5952606201171875	-7.158816503131522	0	-12.8463745	-26.475525	24.624634	141.7154	-106.332214	0.82203805
1448091811213	0.156158447265625	9.421295166015625	-2.5571746826171875	-7.157019102827003	0	-14.039612	-26.985168	23.796082	141.8999	-106.3346	0.8661248
1448091811253	0.179962158203125	9.452239990234375	-2.5833587646484375	-7.151634202896568	0	-13.868713	-27.494812	24.95575	142.33807	-106.301056	0.9616453
1448091811294	0.191864013671875	9.328460693359375	-2.4262542724609375	-7.143130376638338	0	-13.357544	-26.644897	24.458313	142.60815	-106.24711	1.0161463
1448091811334	0.149017333984375	9.161834716796875	-2.4429168701171875	-7.185925434041063	0	-13.357544	-26.304626	24.458313	142.9122	-106.13927	1.1042366
1448091811374	0.232330322265625	9.164215087890625	-2.5238494873046875	-7.185017286666017	0	-12.164307	-26.475525	23.960876	143.10437	-106.03683	1.198
1448091811415	0.360870361328125	9.409393310546875	-2.5928802490234375	-7.127536092055368	0	-13.697815	-27.323914	25.12207	143.31775	-105.950645	1.3191763
1448091811455	0.303741455078125	9.371307373046875	-2.5643157958984375	-7.140004224066466	0	-14.039612	-26.644897	24.458313	143.39716	-105.88062	1.4550909
1448091811495	0.272796630859375	9.378448486328125	-2.6904754638671875	-7.168272944208715	0	-14.039612	-26.644897	26.116943	143.43347	-105.81947	1.5795789
1448091811536	0.227569580078125	9.347503662109375	-2.6381072998046875	-7.172787944749509	0	-13.697815	-26.304626	24.127197	143.4671	-105.80049	1.6712068
1448091811576	0.332305908203125	9.297515869140625	-2.5214691162109375	-7.140450592871282	0	-13.868713	-26.475525	24.293518	143.4347	-105.79114	1.7883979
1448091811616	0.465606689453125	9.240386962890625	-2.7023773193359375	-7.160165354480142	0	-12.8463745	-25.454712	25.288391	143.52258	-105.78513	1.9486684
1448091811656	0.494171142578125	9.326080322265625	-2.6214447021484375	-7.123540782857129	0	-11.31134	-27.664185	25.12207	143.79425	-105.81412	2.0970461
1448091811696	0.446563720703125	9.342742919921875	-2.5928802490234375	-7.123984412257029	0	-12.504578	-26.81427	24.95575	144.20264	-105.821815	2.2434726
1448091811737	0.479888916015625	9.254669189453125	-2.5857391357421875	-7.132872457835958	0	-14.379883	-26.304626	25.12207	144.51813	-105.81143	2.3474176
1448091811777	0.467987060546875	9.254669189453125	-2.6166839599609375	-7.140897036420024	0	-12.675476	-25.62561	24.458313	144.7879	-105.83559	2.4657202
1448091811817	0.458465576171875	9.349884033203125	-2.7190399169921875	-7.144024237250175	0	-14.72168	-25.964355	24.790955	145.05035	-105.85206	2.5827494
1448091811858	0.517974853515625	9.309417724609375	-2.6619110107421875	-7.129758284959154	0	-13.697815	-25.62561	25.12207	145.29413	-105.875046	2.752662
1448091811898	0.517974853515625	9.216583251953125	-2.6333465576171875	-7.141790147899561	0	-14.72168	-26.304626	26.116943	145.59128	-105.89967	2.9440176
1448091811938	0.567962646484375	9.285614013671875	-2.7118988037109375	-7.134208214268478	0	-13.528442	-25.115967	24.624634	145.88943	-105.933876	3.132104
1448091811978	0.563201904296875	9.283233642578125	-2.8618621826171875	-7.163765657053433	0	-13.868713	-26.475525	26.283264	146.18658	-106.00121	3.315744
1448091812019	0.444183349609375	9.249908447265625	-2.7785491943359375	-7.1768580730157066	0	-14.550781	-24.775696	24.624634	146.50177	-106.088135	3.4694755
1448091812059	0.558441162109375	9.157073974609375	-2.7737884521484375	-7.171884325668078	0	-14.379883	-25.964355	26.116943	146.67859	-106.13472	3.5841963
1448091812099	0.603668212890625	9.185638427734375	-2.8309173583984375	-7.1687240965074635	0	-14.21051	-25.454712	24.95575	147.00311	-106.18217	3.7217114
1448091812140	0.598907470703125	9.276092529296875	-2.7047576904296875	-7.1288691864994504	0	-14.039612	-25.964355	25.785828	147.24722	-106.26193	3.84863
1448091812183	0.725067138671875	9.302276611328125	-2.6619110107421875	-7.092666924322227	0	-13.015747	-25.62561	26.7807	147.66248	-106.270004	3.973782
1448091812223	0.760772705078125	9.195159912109375	-2.7761688232421875	-7.127091874625995	0	-13.697815	-25.964355	25.12207	148.29486	-106.26455	4.1250916
1448091812263	0.751251220703125	9.166595458984375	-2.7666473388671875	-7.132427353961544	0	-14.21051	-25.115967	26.61438	148.6839	-106.241196	4.1994014
1448091812303	0.670318603515625	8.995208740234375	-2.5904998779296875	-7.146707621383843	0	-13.697815	-25.28534	26.116943	149.07492	-106.20681	4.313339
1448091812344	0.522735595703125	9.083282470703125	-2.7618865966796875	-7.190470899644559	0	-13.697815	-23.925781	26.44806	149.41983	-106.0724	4.404554
1448091812384	0.563201904296875	9.168975830078125	-2.6952362060546875	-7.1538765827700175	0	-12.504578	-25.454712	25.950623	149.51532	-106.00682	4.4529657
1448091812424	1.013092041015625	9.387969970703125	-2.7809295654296875	-7.04614126162171	0	-12.675476	-26.304626	25.12207	149.8211	-105.76264	4.733354
1448091812464	1.005950927734375	9.447479248046875	-2.7595062255859375	-7.0328076591432955	0	-13.697815	-25.964355	27.111816	150.00891	-105.68237	4.9455376
1448091812504	0.894073486328125	9.359405517578125	-2.7428436279296875	-7.057374145718187	0	-12.675476	-25.62561	26.44806	150.10785	-105.65105	5.02244
1448091812545	0.870269775390625	9.259429931640625	-2.7975921630859375	-7.098813534278356	0	-13.868713	-26.475525	25.950623	150.37589	-105.668274	5.169525
1448091812585	0.986907958984375	9.190399169921875	-2.7880706787109375	-7.088284997982148	0	-13.868713	-25.454712	26.61438	150.61676	-105.73431	5.233005
1448091812625	0.955963134765625	9.333221435546875	-2.8523406982421875	-7.079542268291646	0	-14.379883	-25.964355	24.458313	150.9461	-105.82453	5.2958236
1448091812665	1.022613525390625	9.287994384765625	-2.8428192138671875	-7.07387449305843	0	-12.675476	-26.985168	27.111816	151.08197	-105.90449	5.332748
1448091812706	0.939300537109375	9.333221435546875	-2.7452239990234375	-7.063007833946012	0	-13.015747	-24.945068	26.44806	151.37	-105.92924	5.33363
1448091812746	0.982147216796875	9.211822509765625	-2.7595062255859375	-7.0799787389927875	0	-13.868713	-24.775696	26.283264	151.54147	-106.006775	5.2908425
1448091812786	0.925018310546875	9.240386962890625	-2.7214202880859375	-7.078233275134817	0	-12.8463745	-25.115967	26.61438	151.63013	-106.114784	5.252635
1448091812826	0.860748291015625	9.173736572265625	-2.7547454833984375	-7.108500783906786	0	-14.379883	-25.964355	25.453186	151.66315	-106.22361	5.207883
1448091812866	0.948822021484375	9.185638427734375	-2.8713836669921875	-7.111590392924997	0	-12.164307	-25.794983	27.609253	151.64764	-106.31019	5.1904078
1448091812907	0.936920166015625	9.397491455078125	-2.8213958740234375	-7.06561190315056	0	-13.015747	-26.304626	26.7807	151.73972	-106.42517	5.2180824
1448091812947	1.096405029296875	9.383209228515625	-2.6690521240234375	-7.011861705670983	0	-13.868713	-25.794983	24.95575	151.71362	-106.48546	5.234958
1448091812987	1.013092041015625	9.204681396484375	-2.7333221435546875	-7.070827477668271	0	-13.1866455	-25.794983	26.61438	151.79877	-106.4903	5.276258
1448091813027	0.936920166015625	9.238006591796875	-2.7595062255859375	-7.083473023117254	0	-12.504578	-25.115967	26.61438	151.92719	-106.506874	5.309889
1448091813067	0.839324951171875	9.216583251953125	-2.6714324951171875	-7.089160817974427	0	-14.550781	-25.454712	26.61438	151.92758	-106.506226	5.312947
1448091813108	0.882171630859375	9.207061767578125	-2.6976165771484375	-7.0878471937873675	0	-13.697815	-24.266052	25.785828	151.82928	-106.48769	5.299156
1448091813148	0.927398681640625	9.292755126953125	-2.6833343505859375	-7.061273160075869	0	-11.482239	-24.775696	27.278137	151.73938	-106.4641	5.300013
1448091813188	0.955963134765625	9.280853271484375	-2.6809539794921875	-7.057807096422538	0	-12.504578	-25.794983	26.283264	151.80463	-106.43315	5.319282
1448091813228	0.884552001953125	9.261810302734375	-2.7428436279296875	-7.085659229465328	0	-13.015747	-26.985168	26.116943	151.79941	-106.41216	5.3375263
1448091813269	0.903594970703125	9.271331787109375	-2.6238250732421875	-7.058673202472396	0	-13.868713	-26.475525	24.95575	151.76373	-106.412544	5.3356395
1448091813309	0.877410888671875	9.178497314453125	-2.5881195068359375	-7.07387449305843	0	-13.697815	-24.945068	28.10669	151.7121	-106.382195	5.3280907
1448091813349	0.865509033203125	9.211822509765625	-2.6119232177734375	-7.074310058358499	0	-11.993408	-25.28534	27.111816	151.66806	-106.35639	5.299028
1448091813390	0.870269775390625	9.276092529296875	-2.6000213623046875	-7.059539581592205	0	-12.333679	-25.62561	27.111816	151.73035	-106.32417	5.2726727
1448091813430	0.905975341796875	9.342742919921875	-2.6381072998046875	-7.047866420635355	0	-12.333679	-25.62561	25.785828	151.76947	-106.28242	5.2616773
1448091813470	0.951202392578125	9.261810302734375	-2.6238250732421875	-7.051751978407826	0	-12.504578	-24.775696	23.960876	151.75537	-106.24113	5.255603
1448091813510	0.934539794921875	9.271331787109375	-2.5928802490234375	-7.043555542729802	0	-13.868713	-24.775696	28.27301	151.74146	-106.22964	5.2641735
1448091813551	0.825042724609375	9.283233642578125	-2.6738128662109375	-7.0799787389927875	0	-12.333679	-25.62561	26.7807	151.76544	-106.226654	5.2470436
1448091813591	0.889312744140625	9.204681396484375	-2.6166839599609375	-7.072132925657348	0	-12.8463745	-27.154541	25.950623	151.80225	-106.21215	5.211286
1448091813631	0.860748291015625	9.240386962890625	-2.7238006591796875	-7.09047507748142	0	-12.8463745	-26.135254	25.950623	151.77899	-106.204346	5.204821
1448091813671	0.844085693359375	9.283233642578125	-2.6857147216796875	-7.078669536396168	0	-12.8463745	-26.135254	25.950623	151.74408	-106.210106	5.1847925
1448091813712	0.886932373046875	9.292755126953125	-2.6571502685546875	-7.0638755823004535	0	-12.504578	-24.775696	26.283264	151.65729	-106.203964	5.1596127
1448091813752	0.896453857421875	9.285614013671875	-2.6738128662109375	-7.066480476168454	0	-13.697815	-25.964355	27.442932	151.62012	-106.2074	5.1374
1448091813792	0.872650146484375	9.221343994140625	-2.6523895263671875	-7.078669536396168	0	-13.528442	-26.475525	25.288391	151.58392	-106.20697	5.128732
1448091813832	0.858367919921875	9.230865478515625	-2.6952362060546875	-7.087409460081398	0	-11.482239	-25.115967	27.609253	151.57953	-106.21504	5.115452
1448091813873	0.891693115234375	9.295135498046875	-2.6833343505859375	-7.067349324597087	0	-12.333679	-24.606323	26.7807	151.6489	-106.22891	5.095532
1448091813913	0.944061279296875	9.340362548828125	-2.6285858154296875	-7.039681495111337	0	-11.82251	-25.115967	26.61438	151.69525	-106.23164	5.0992727
1448091813953	0.927398681640625	9.190399169921875	-2.7380828857421875	-7.090036920331075	0	-13.697815	-25.964355	26.116943	151.69495	-106.242935	5.1072297
1448091813993	0.891693115234375	9.283233642578125	-2.7166595458984375	-7.075617171069348	0	-13.697815	-25.28534	25.785828	151.60278	-106.265	5.103696
1448091814034	0.825042724609375	9.226104736328125	-2.6857147216796875	-7.092666924322227	0	-13.015747	-24.945068	26.116943	151.49652	-106.27672	5.09172
1448091814075	0.855987548828125	9.287994384765625	-2.7357025146484375	-7.08478453620652	0	-13.015747	-25.62561	27.442932	151.4422	-106.30292	5.0662103
1448091814115	0.896453857421875	9.192779541015625	-2.6738128662109375	-7.083473023117254	0	-12.333679	-26.304626	26.44806	151.42642	-106.336525	5.0493345
1448091814155	0.896453857421875	9.230865478515625	-2.6285858154296875	-7.068218448698609	0	-12.675476	-25.62561	26.116943	151.4519	-106.34442	5.052994
1448091814195	0.786956787109375	9.266571044921875	-2.6595306396484375	-7.087409460081398	0	-13.015747	-25.964355	27.111816	151.43109	-106.33675	5.0335975
1448091814236	0.875030517578125	9.252288818359375	-2.6523895263671875	-7.072568213504036	0	-11.993408	-25.28534	27.775574	151.42926	-106.33433	5.0018406
1448091814276	0.844085693359375	9.349884033203125	-2.7118988037109375	-7.071262557772521	0	-12.164307	-24.435425	25.288391	151.54102	-106.32653	5.009758
1448091814316	0.782196044921875	9.302276611328125	-2.6571502685546875	-7.081288570512479	0	-13.1866455	-26.475525	26.945496	151.52551	-106.32371	5.0040283
1448091814357	0.898834228515625	9.259429931640625	-2.6262054443359375	-7.062140359957845	0	-13.528442	-25.794983	27.278137	151.52475	-106.316055	4.988267
1448091814397	0.879791259765625	9.314178466796875	-2.6976165771484375	-7.068653114208739	0	-12.333679	-25.62561	27.111816	151.50793	-106.36173	5.0162525
1448091814437	0.882171630859375	9.421295166015625	-2.6833343505859375	-7.04614126162171	0	-12.675476	-24.606323	26.116943	151.55142	-106.43627	4.9895325
1448091814477	1.082122802734375	9.114227294921875	-2.5286102294921875	-7.0375315883922145	0	-12.675476	-23.925781	27.111816	151.57648	-106.49929	4.95603
1448091814518	1.072601318359375	9.266571044921875	-2.8190155029296875	-7.064309559446417	0	-13.1866455	-24.09668	26.945496	151.74731	-106.60901	4.9507155
1448091814558	1.048797607421875	9.185638427734375	-2.6809539794921875	-7.05824011532986	0	-12.675476	-23.58551	26.7807	151.94843	-106.72895	4.9141026
1448091814598	0.701263427734375	9.259429931640625	-2.8523406982421875	-7.140450592871282	0	-13.015747	-26.304626	26.116943	152.23114	-106.82587	4.8376427
1448091814639	0.563201904296875	9.199920654296875	-2.7238006591796875	-7.153427955180051	0	-12.675476	-23.925781	26.44806	152.30615	-106.91838	4.674548
1448091814679	0.677459716796875	9.059478759765625	-2.7214202880859375	-7.157917650514399	0	-12.333679	-23.246765	26.44806	152.26678	-106.95309	4.540148
1448091814719	0.791717529296875	9.211822509765625	-2.8571014404296875	-7.1333176358205606	0	-12.8463745	-24.775696	27.940369	152.14905	-106.99882	4.473031
1448091814759	0.872650146484375	9.264190673828125	-2.7095184326171875	-7.081288570512479	0	-11.482239	-24.09668	26.945496	152.10449	-107.07	4.457315
1448091814800	1.001190185546875	9.240386962890625	-2.7476043701171875	-7.069087848735586	0	-11.993408	-26.304626	27.442932	152.38104	-107.018814	4.4687853
1448091814840	0.875030517578125	9.287994384765625	-2.8047332763671875	-7.093982882532707	0	-13.015747	-25.28534	26.44806	152.46338	-107.0135	4.4729347
1448091814880	0.720306396484375	9.176116943359375	-2.7214202880859375	-7.127980383152954	0	-12.164307	-24.775696	26.61438	152.49213	-106.99905	4.370082
1448091814920	0.689361572265625	9.118988037109375	-2.7476043701171875	-7.149393715336008	0	-11.993408	-25.62561	27.111816	152.49878	-106.986534	4.302323
1448091814961	0.660797119140625	9.161834716796875	-2.8785247802734375	-7.171432632324075	0	-13.697815	-25.28534	27.775574	152.4992	-106.99222	4.268569
1448091815002	0.753631591796875	9.321319580078125	-2.9880218505859375	-7.144471280105137	0	-12.333679	-26.985168	26.44806	152.33295	-107.10551	4.1556363
1448091815042	0.529876708984375	9.199920654296875	-2.8761444091796875	-7.188651766344192	0	-10.969543	-25.28534	27.442932	152.2345	-107.36184	3.9671524
1448091815082	0.503692626953125	9.207061767578125	-2.8951873779296875	-7.195935905061402	0	-12.164307	-25.115967	27.278137	152.24243	-107.45975	3.8553817
1448091815123	0.413238525390625	9.238006591796875	-2.9380340576171875	-7.215613496837486	0	-12.333679	-25.62561	28.10669	152.17767	-107.64146	3.6107953
1448091815163	0.344207763671875	9.302276611328125	-2.9308929443359375	-7.21515418141454	0	-11.482239	-25.794983	27.940369	151.84119	-107.9456	3.2479203
1448091815203	0.513214111328125	9.092803955078125	-3.0665740966796875	-7.249366344323115	0	-11.31134	-24.266052	26.116943	151.67291	-108.10246	3.0882742
1448091815243	0.389434814453125	9.178497314453125	-3.2570037841796875	-7.294443885279706	0	-10.629272	-24.266052	27.775574	151.50494	-108.33617	2.9921548
1448091815284	0.403717041015625	9.390350341796875	-3.1570281982421875	-7.230354828326638	0	-12.8463745	-24.775696	28.935242	151.3982	-108.62801	2.832276
1448091815324	0.460845947265625	9.378448486328125	-3.2950897216796875	-7.248435675349595	0	-13.1866455	-24.775696	27.278137	151.31067	-108.77749	2.7475753
1448091815364	0.541778564453125	9.273712158203125	-3.2403411865234375	-7.242394560466574	0	-12.333679	-25.28534	28.10669	151.02429	-109.31948	2.5085635
1448091815404	0.644134521484375	8.980926513671875	-3.2308197021484375	-7.277916284505352	0	-8.92334	-23.925781	27.442932	150.88965	-109.72867	2.3312259
1448091815445	0.567962646484375	8.892852783203125	-3.5117034912109375	-7.367519858127543	0	-11.82251	-25.115967	28.935242	150.99167	-109.91317	2.2342265
1448091815485	-0.017608642578125	8.754791259765625	-3.2760467529296875	-7.469692671016283	0	-13.357544	-23.925781	27.775574	150.97241	-110.394775	1.9104823
1448091815526	0.427520751953125	8.776214599609375	-3.7759246826171875	-7.476833773756407	0	-11.82251	-23.075867	28.604126	150.96393	-110.982155	1.3025695
1448091815566	0.284698486328125	9.504608154296875	-4.1924896240234375	-7.4408407103423295	0	-10.287476	-25.28534	28.10669	151.32068	-111.109764	1.1054571
1448091815606	-0.067596435546875	9.159454345703125	-4.0877532958984375	-7.5696143911375255	0	-10.629272	-23.925781	28.437805	151.44312	-111.29752	1.0475712
1448091815646	-0.141387939453125	8.971405029296875	-3.7949676513671875	-7.562708416505698	0	-11.140442	-23.756409	28.27301	150.97418	-111.506805	1.0225822
1448091815686	-0.193756103515625	9.145172119140625	-3.4379119873046875	-7.458514816638818	0	-10.118103	-23.756409	29.267883	150.38531	-111.596634	0.9699503
1448091815727	0.108551025390625	8.640533447265625	-2.8571014404296875	-7.379259267381984	0	-11.31134	-25.28534	28.770447	150.01855	-111.62301	0.8667629
1448091815767	0.434661865234375	8.754791259765625	-3.1641693115234375	-7.35195464608906	0	-10.629272	-24.606323	28.770447	150.13452	-111.575745	0.896276
1448091815807	0.018096923828125	8.807159423828125	-3.1451263427734375	-7.42329766817493	0	-9.436035	-23.756409	28.604126	150.36542	-111.4681	0.92110354
1448091815847	-9.46044921875E-4	8.921417236328125	-3.7211761474609375	-7.526403726881101	0	-12.164307	-23.416138	30.262756	150.38141	-111.4015	0.8615353
1448091815888	0.049041748046875	9.276092529296875	-3.7545013427734375	-7.446381168075656	0	-11.31134	-24.606323	28.10669	150.25873	-111.40392	0.83603287
1448091815930	0.060943603515625	9.009490966796875	-3.5069427490234375	-7.4478944606651165	0	-11.651611	-23.925781	29.432678	150.04077	-111.42803	0.84598297
1448091815970	0.051422119140625	9.066619873046875	-3.7021331787109375	-7.479389478049619	0	-10.800171	-23.416138	28.27301	149.63629	-111.55938	0.9041292
1448091816010	0.129974365234375	9.059478759765625	-3.4331512451171875	-7.407370565393377	0	-11.993408	-23.246765	30.427551	149.53629	-111.60849	0.89077467
1448091816051	0.434661865234375	8.923797607421875	-3.5616912841796875	-7.398952146081872	0	-9.265137	-22.906494	29.101563	149.67944	-111.63323	0.88511753
1448091816091	0.208526611328125	9.149932861328125	-3.3331756591796875	-7.35195464608906	0	-9.776306	-23.416138	30.593872	150.19965	-111.6793	0.8947348
1448091816131	0.370391845703125	8.988067626953125	-3.4093475341796875	-7.367519858127543	0	-8.753967	-23.756409	28.27301	150.41162	-111.669556	0.90158784
1448091816171	0.075225830078125	8.871429443359375	-3.6259613037109375	-7.499937048954363	0	-10.118103	-23.416138	29.930115	150.9599	-111.72794	0.97265977
1448091816212	0.141876220703125	8.999969482421875	-3.5664520263671875	-7.4453728451591505	0	-10.458374	-24.435425	29.930115	151.14267	-111.76945	0.9252389
1448091816252	0.265655517578125	9.014251708984375	-3.5997772216796875	-7.42329766817493	0	-10.287476	-23.58551	30.427551	151.26257	-111.77025	0.91373795
1448091816292	0.144256591796875	9.102325439453125	-3.5378875732421875	-7.417312562706652	0	-10.800171	-25.454712	29.930115	151.53818	-111.7664	0.90369374
1448091816332	0.106170654296875	8.911895751953125	-3.5521697998046875	-7.468674294070636	0	-9.947205	-22.906494	29.101563	151.7869	-111.78856	0.8849433
1448091816373	0.132354736328125	8.857147216796875	-3.4260101318359375	-7.4478944606651165	0	-11.140442	-24.435425	29.267883	151.83875	-111.80045	0.8851911
1448091816413	0.172821044921875	9.047576904296875	-3.5593109130859375	-7.42729610261051	0	-10.287476	-23.925781	29.432678	152.00732	-111.74966	0.9041411
1448091816453	0.149017333984375	8.988067626953125	-3.4974212646484375	-7.431802388351995	0	-11.993408	-24.606323	28.437805	151.91568	-111.720764	0.90239406
1448091816493	0.260894775390625	9.038055419921875	-3.5212249755859375	-7.402910082451032	0	-11.482239	-23.756409	29.267883	151.89117	-111.67953	0.9375279
1448091816533	0.225189208984375	8.930938720703125	-3.6545257568359375	-7.4610505605612225	0	-9.436035	-24.435425	28.935242	151.94879	-111.63868	1.0012327
1448091816573	0.139495849609375	9.090423583984375	-3.6283416748046875	-7.439834747849067	0	-10.287476	-24.945068	29.432678	152.073	-111.6452	1.0337532
1448091816614	0.225189208984375	9.061859130859375	-3.4950408935546875	-7.399941019942986	0	-10.800171	-22.737122	29.930115	152.21619	-111.650116	1.0363662
1448091816654	0.263275146484375	8.985687255859375	-3.6259613037109375	-7.4353131977272735	0	-9.947205	-23.925781	30.760193	152.34338	-111.67936	1.0758742
1448091816694	0.151397705078125	8.883331298828125	-3.5902557373046875	-7.473260490498315	0	-11.31134	-24.266052	30.096436	152.43274	-111.738075	1.1048892
1448091816734	0.172821044921875	8.871429443359375	-3.6069183349609375	-7.474791227111384	0	-10.118103	-22.737122	29.598999	152.42047	-111.78555	1.0881871
1448091816775	0.270416259765625	9.188018798828125	-3.6331024169921875	-7.393027411159638	0	-10.969543	-24.266052	29.76532	152.54242	-111.7967	1.0936334
1448091816815	0.170440673828125	8.952362060546875	-3.6307220458984375	-7.46308113118828	0	-9.947205	-21.887207	29.101563	152.63647	-111.79957	1.1287036
1448091816855	0.268035888671875	8.988067626953125	-3.6283416748046875	-7.434309579157663	0	-9.265137	-23.58551	30.427551	152.69073	-111.83183	1.1708314
1448091816895	0.251373291015625	8.969024658203125	-3.5783538818359375	-7.431301267759608	0	-9.436035	-22.737122	28.604126	152.85077	-111.83676	1.2184755
1448091816936	0.251373291015625	8.976165771484375	-3.5997772216796875	-7.434309579157663	0	-9.776306	-22.39685	28.935242	153.03351	-111.84598	1.2196677
1448091816976	0.218048095703125	9.009490966796875	-3.6188201904296875	-7.4383266052944155	0	-9.605408	-22.906494	27.442932	153.19617	-111.8657	1.2418411
1448091817016	0.263275146484375	9.016632080078125	-3.6949920654296875	-7.443357489986942	0	-10.629272	-23.246765	29.101563	153.25842	-111.87583	1.2665944
1448091817056	0.268035888671875	8.928558349609375	-3.6592864990234375	-7.453451526304	0	-9.094238	-23.416138	31.588745	153.37988	-111.89565	1.3202736
1448091817096	0.298980712890625	8.923797607421875	-3.4783782958984375	-7.409852198412594	0	-11.31134	-23.925781	29.76532	153.51599	-111.86621	1.3582598
1448091817137	0.196624755859375	8.959503173828125	-3.4117279052734375	-7.409852198412594	0	-11.82251	-23.075867	30.262756	153.5581	-111.80023	1.411945
1448091817177	0.199005126953125	9.019012451171875	-3.6116790771484375	-7.438829212745338	0	-10.118103	-23.756409	30.924988	153.53687	-111.742256	1.4514654
1448091817217	0.256134033203125	9.104705810546875	-3.6212005615234375	-7.41084557138538	0	-10.800171	-23.075867	29.598999	153.54285	-111.70925	1.5193659
1448091817257	0.446563720703125	9.147552490234375	-3.6426239013671875	-7.367031942008931	0	-10.118103	-23.416138	29.598999	153.50146	-111.67583	1.5962067
1448091817297	0.446563720703125	9.147552490234375	-3.6426239013671875	-7.367031942008931	0	-10.118103	-23.416138	29.598999	153.50146	-111.67583	1.5962067
1448091817338	0.320404052734375	8.938079833984375	-3.5164642333984375	-7.410348833423275	0	-10.969543	-24.266052	28.437805	153.55194	-111.634155	1.7779531
1448091817378	0.294219970703125	8.885711669921875	-3.3665008544921875	-7.39549428142754	0	-11.140442	-24.435425	29.267883	153.53186	-111.602715	1.8059338
1448091817418	0.303741455078125	8.964263916015625	-3.4474334716796875	-7.394013856581683	0	-10.969543	-22.906494	28.437805	153.5492	-111.570145	1.8170581
1448091817458	0.315643310546875	9.023773193359375	-3.6045379638671875	-7.411839356420131	0	-10.629272	-24.266052	29.76532	153.43518	-111.574066	1.8664949
1448091817499	0.353729248046875	9.021392822265625	-3.5569305419921875	-7.394507230573352	0	-9.947205	-23.246765	30.427551	153.3905	-111.59716	1.8809525
1448091817539	0.382293701171875	9.054718017578125	-3.6854705810546875	-7.40836291044957	0	-9.436035	-24.435425	30.593872	153.46454	-111.606186	1.8973645
1448091817580	0.472747802734375	9.114227294921875	-3.5593109130859375	-7.3514698232944315	0	-11.651611	-22.906494	30.096436	153.46777	-111.63358	1.9121147
1448091817620	0.463226318359375	9.047576904296875	-3.6926116943359375	-7.394507230573352	0	-10.458374	-23.416138	29.598999	153.55182	-111.63808	1.9760978
1448091817660	0.339447021484375	8.911895751953125	-3.5664520263671875	-7.422299107270579	0	-11.482239	-23.075867	29.267883	153.66095	-111.69573	2.0421193
1448091817700	0.348968505859375	8.964263916015625	-3.4926605224609375	-7.394013856581683	0	-10.118103	-24.435425	31.25763	153.76526	-111.67783	2.075666
1448091817740	0.263275146484375	8.966644287109375	-3.4617156982421875	-7.40489149659007	0	-10.287476	-23.58551	30.427551	153.86627	-111.62196	2.086225
1448091817781	0.306121826171875	8.983306884765625	-3.4950408935546875	-7.399446532232975	0	-11.651611	-23.246765	28.770447	153.88013	-111.577415	2.0807607
1448091817821	0.384674072265625	8.959503173828125	-3.5973968505859375	-7.4093556662893505	0	-11.31134	-23.925781	29.76532	153.78113	-111.55901	2.1147866
1448091817861	0.408477783203125	9.061859130859375	-3.6450042724609375	-7.393027411159638	0	-10.629272	-24.266052	30.096436	153.75555	-111.57176	2.1622431
1448091817901	0.401336669921875	8.988067626953125	-3.6045379638671875	-7.401425093052937	0	-10.629272	-24.266052	30.096436	153.7876	-111.57677	2.1779368
1448091817942	0.465606689453125	8.971405029296875	-3.5640716552734375	-7.383185041005861	0	-10.629272	-23.58551	28.770447	153.9126	-111.58319	2.248411
1448091817982	0.463226318359375	9.069000244140625	-3.5640716552734375	-7.3636192577045225	0	-10.287476	-23.246765	29.432678	154.05548	-111.57902	2.2984672
1448091818022	0.491790771484375	9.059478759765625	-3.4878997802734375	-7.3442089362214285	0	-10.969543	-24.945068	30.427551	154.22675	-111.57667	2.3545954
1448091818062	0.408477783203125	8.971405029296875	-3.4807586669921875	-7.3777887381873795	0	-9.436035	-23.756409	29.267883	154.3891	-111.541374	2.4153728
1448091818102	0.460845947265625	8.885711669921875	-3.5450286865234375	-7.3979636782062625	0	-11.482239	-22.39685	30.924988	154.4657	-111.529816	2.4433556
1448091818143	0.379913330078125	9.057098388671875	-3.5045623779296875	-7.3709380076824464	0	-9.265137	-23.58551	29.76532	154.48291	-111.50212	2.462671
1448091818183	0.425140380859375	9.114227294921875	-3.4664764404296875	-7.342276312788524	0	-9.265137	-21.887207	29.76532	154.5758	-111.45806	2.4790466
1448091818223	0.377532958984375	8.938079833984375	-3.4712371826171875	-7.389085654571712	0	-11.482239	-23.075867	28.935242	154.6217	-111.41775	2.5007145
1448091818263	0.365631103515625	8.973785400390625	-3.5212249755859375	-7.394507230573352	0	-10.629272	-23.58551	29.76532	154.49988	-111.39506	2.5105066
1448091818304	0.322784423828125	9.004730224609375	-3.4212493896484375	-7.376319098789388	0	-11.651611	-22.566223	28.437805	154.41272	-111.36522	2.4904165
1448091818344	0.334686279296875	8.938079833984375	-3.3569793701171875	-7.374360960932486	0	-11.31134	-23.58551	28.437805	154.35242	-111.34935	2.4766498
1448091818384	0.377532958984375	8.935699462890625	-3.6116790771484375	-7.418807432642742	0	-10.287476	-23.246765	29.76532	154.21814	-111.34875	2.4793992
1448091818424	0.408477783203125	8.969024658203125	-3.5093231201171875	-7.38416747848592	0	-10.800171	-24.09668	29.598999	154.02069	-111.39262	2.4561145
1448091818464	0.510833740234375	9.140411376953125	-3.6521453857421875	-7.357294030659846	0	-11.82251	-24.435425	29.930115	153.93988	-111.39017	2.4619725
1448091818505	0.503692626953125	9.038055419921875	-3.5355072021484375	-7.355836681210002	0	-10.800171	-24.435425	28.935242	153.8891	-111.38525	2.5147488
1448091818545	0.553680419921875	8.952362060546875	-3.4736175537109375	-7.350500464810553	0	-11.140442	-22.737122	29.267883	153.89893	-111.39403	2.571388
1448091818585	0.437042236328125	8.976165771484375	-3.4331512451171875	-7.361184541903909	0	-11.482239	-22.737122	30.593872	153.9674	-111.380646	2.6232045
1448091818626	0.432281494140625	8.990447998046875	-3.4379119873046875	-7.360211334051186	0	-10.800171	-23.416138	30.262756	154.01904	-111.33888	2.6514199
1448091818666	0.477508544921875	8.971405029296875	-3.5283660888671875	-7.373382482935082	0	-9.947205	-22.906494	29.432678	154.06238	-111.28735	2.6797507
1448091818706	0.463226318359375	9.066619873046875	-3.5521697998046875	-7.36167129110038	0	-10.458374	-23.756409	28.935242	154.10486	-111.2421	2.7312775
1448091818747	0.358489990234375	9.007110595703125	-3.4355316162109375	-7.371426706427946	0	-10.458374	-24.09668	29.267883	154.12	-111.214584	2.7463706
1448091818787	0.465606689453125	9.059478759765625	-3.5735931396484375	-7.367031942008931	0	-11.140442	-23.075867	29.930115	154.12952	-111.18886	2.741464
1448091818827	0.477508544921875	9.019012451171875	-3.4402923583984375	-7.345659399803539	0	-10.969543	-23.925781	28.770447	154.13605	-111.20732	2.748559
1448091818868	0.458465576171875	8.990447998046875	-3.4902801513671875	-7.358752247756396	0	-11.140442	-23.075867	29.267883	154.1037	-111.21335	2.7544372
1448091818908	0.463226318359375	9.066619873046875	-3.4236297607421875	-7.335524033813597	0	-10.629272	-22.906494	29.101563	154.1062	-111.20538	2.759006
1448091818949	0.448944091796875	8.973785400390625	-3.4355316162109375	-7.359724875279377	0	-11.140442	-23.756409	30.262756	154.13318	-111.188484	2.7614985
1448091818989	0.472747802734375	9.054718017578125	-3.4022064208984375	-7.331673859806305	0	-10.969543	-23.58551	28.10669	154.20856	-111.151085	2.7823894
