timestamp	accel_x	accel_y	accel_z	accel_mag	temperature	mag_x	mag_y	mag_z	azimuth	pitch	roll
1448010629461	-1.9420623779296875	5.44122314453125	7.693359375	-6.461077598101969	0	-12.39624	63.360596	-26.274109	24.927765	-29.854898	-5.5671463
1448010629502	-1.9420623779296875	5.44122314453125	7.693359375	-6.461077598101969	0	-12.8463745	63.360596	-26.274109	24.927765	-29.854898	-5.5671463
1448010629547	-1.7790069580078125	5.56976318359375	7.661224365234375	-6.422522490423673	0	-13.896179	62.61139	-25.97351	26.86679	-30.006544	-5.231082
1448010629587	-1.8266143798828125	5.623321533203125	8.16229248046875	-6.348421341545659	0	-14.045715	63.961792	-26.274109	27.212097	-29.557098	-4.8713555
1448010629627	-1.6123809814453125	5.691162109375	7.704071044921875	-6.373984062722489	0	-13.896179	63.360596	-26.124573	26.976715	-29.519918	-4.9807944
1448010629667	-1.7409210205078125	5.968475341796875	7.235137939453125	-6.420940203041335	0	-12.696838	62.760925	-27.024841	25.615051	-29.791256	-5.403988
1448010629708	-1.5969085693359375	5.70782470703125	8.256317138671875	-6.289892267422953	0	-11.495972	63.961792	-27.323914	23.747772	-29.791021	-5.8834934
1448010629748	-0.6899871826171875	6.26483154296875	7.40533447265625	-6.203798474380275	0	-8.796692	62.461853	-28.973389	20.588928	-30.50312	-6.766178
1448010629788	-0.9732513427734375	5.904205322265625	7.147064208984375	-6.331255673393416	0	-7.296753	62.161255	-29.873657	17.216156	-31.572418	-7.867023
1448010629829	-1.4886016845703125	5.504302978515625	7.59814453125	-6.39869069586714	0	-6.2469482	63.661194	-29.724121	14.075653	-31.820953	-8.503081
1448010629869	-1.0351409912109375	5.808990478515625	8.963287353515625	-6.100235630321768	0	-3.9962769	64.260864	-29.873657	10.701599	-31.16612	-8.198118
1448010629910	-0.0330047607421875	5.223419189453125	10.003509521484375	-5.908661576910775	0	-0.24719238	65.16113	-30.474854	6.5707397	-30.679977	-7.2974253
1448010629951	0.0562591552734375	4.506927490234375	9.665496826171875	-6.034507282200013	0	3.0532837	63.21106	-31.524658	359.0777	-33.19896	-7.4371824
1448010629991	-0.4221954345703125	5.7816162109375	10.191558837890625	-5.863126960373912	0	6.2042236	61.260986	-32.273865	354.93332	-36.23851	-8.218564
1448010630031	-3.5357208251953125	7.938232421875	4.188262939453125	-6.875597690868734	0	9.05304	59.461975	-32.873535	353.00925	-38.560318	-9.967563
1448010630073	-1.5016937255859375	4.980621337890625	10.296295166015625	-6.095101275991016	0	8.453369	58.561707	-33.32367	352.22174	-38.72267	-10.706683
1448010630114	-3.3250579833984375	4.635467529296875	10.19036865234375	-6.415320271307277	0	8.903503	58.26111	-33.47473	352.05756	-38.72218	-10.4904995
1448010630154	-0.9185028076171875	5.70306396484375	8.2789306640625	-6.192254717477995	0	9.654236	54.06189	-34.97467	350.59213	-41.322716	-8.188407
1448010630194	-1.6088104248046875	6.658782958984375	6.70550537109375	-6.377973758300062	0	9.803772	50.01068	-35.124207	349.7499	-43.055347	-7.497932
1448010630235	-1.4886016845703125	6.842071533203125	6.26751708984375	-6.397643130446417	0	8.453369	49.861145	-35.873413	348.42593	-46.49304	-4.624033
1448010630275	1.4868621826171875	5.768524169921875	3.7562255859375	-6.4882251057970315	0	1.5533447	44.610596	-37.07428	348.6251	-50.961235	6.240857
1448010630315	3.4113922119140625	5.89349365234375	4.243011474609375	-6.219690324456467	0	-2.645874	42.060852	-36.624146	349.6112	-53.662094	14.187684
1448010630356	2.6496734619140625	6.206512451171875	3.776458740234375	-6.25235681004798	0	-5.94635	40.711975	-37.223816	349.93558	-55.67659	19.923021
1448010630397	3.9564971923828125	6.1767578125	1.685302734375	-6.368787070351585	0	-9.246826	40.26184	-36.624146	350.0511	-57.155167	25.695618
1448010630437	6.0821685791015625	7.06463623046875	4.20611572265625	-5.640916318750718	0	-9.396362	40.11078	-36.77368	348.8656	-57.024727	30.115845
1448010630477	5.0717010498046875	6.3814697265625	6.1175537109375	-5.614855197736307	0	-8.647156	42.66205	-37.97455	346.13333	-53.844086	32.251316
1448010630517	5.7155914306640625	5.021087646484375	6.8887939453125	-5.608329758286046	0	-10.296631	43.411255	-37.97455	343.7855	-51.16489	35.237434
1448010630558	8.694625854492188	5.4483642578125	5.599822998046875	-5.363311453174398	0	-13.896179	43.110657	-37.823486	343.15225	-50.99461	40.500984
1448010630598	9.511093139648438	3.928497314453125	5.921173095703125	-5.406513233832236	0	-15.54718	42.811584	-36.47461	342.82385	-52.331833	45.78726
1448010630639	10.475143432617188	4.928253173828125	2.3184814453125	-5.596863897610942	0	-18.096924	41.011047	-36.024475	343.75354	-57.30882	51.865433
1448010630679	9.264724731445313	5.468597412109375	3.37774658203125	-5.5508898682375065	0	-19.146729	38.911438	-35.273743	345.75674	-60.652756	54.156773
1448010630719	11.723648071289063	4.492645263671875	3.7657470703125	-5.336472439708969	0	-24.09668	38.911438	-33.773804	351.33823	-65.6237	57.416542
1448010630759	11.567733764648438	3.04656982421875	3.64910888671875	-5.716021329163233	0	-27.246094	39.51111	-30.773926	354.9807	-69.10812	58.807518
1448010630800	5.5596771240234375	5.356719970703125	0.167816162109375	-6.477303789562133	0	-29.646301	37.4115	-29.574585	3.4985962	-79.66363	60.622334
1448010630840	11.169021606445313	6.338623046875	3.005218505859375	-5.277487155393488	0	-31.295776	36.061096	-27.47345	7.294159	-85.43959	62.207615
1448010630881	6.4308929443359375	4.159393310546875	-2.812408447265625	-7.0177153111651975	0	-32.196045	33.511353	-26.724243	9.064362	-89.985	61.786037
1448010630921	8.701766967773438	4.434326171875	-0.5712890625	-6.261913261069683	0	-33.24585	32.011414	-24.023438	14.50943	-97.64937	61.670975
1448010630961	7.9126739501953125	3.23223876953125	-0.986663818359375	-6.619399205985417	0	-34.89685	30.361938	-21.174622	17.591858	-101.77764	61.530827
1448010631001	6.4154205322265625	4.17010498046875	-2.50177001953125	-6.963405407087994	0	-36.39679	28.862	-18.32428	24.093262	-110.106705	61.223476
1448010631042	7.9507598876953125	3.062042236328125	-0.9664306640625	-6.636998848441504	0	-38.4964	28.862	-16.22467	32.92633	-120.77133	60.594696
1448010631082	9.851486206054688	2.507415771484375	-3.5657958984375	-6.841282802953188	0	-39.996338	26.760864	-12.924194	38.356293	-128.60912	59.25122
1448010631123	5.6239471435546875	2.576446533203125	-4.771453857421875	-7.954860326251031	0	-40.446472	25.11139	-9.924316	41.54727	-134.42555	57.188633
1448010631164	7.3271026611328125	2.14202880859375	-4.4798583984375	-7.57293192454898	0	-41.645813	24.961853	-5.874634	45.191376	-140.94838	54.692955
1448010631206	8.381607055664063	2.31103515625	-8.44317626953125	-8.131702214231137	0	-42.697144	24.061584	-4.0740967	47.7818	-146.29807	53.05257
1448010631246	6.2547454833984375	1.64215087890625	-6.28179931640625	-8.53573531566164	0	-42.697144	23.310852	-3.1738281	47.546204	-147.1088	52.650284
1448010631287	7.4687347412109375	1.94921875	-7.61004638671875	-8.462015638759624	0	-41.94641	23.61145	-2.1240234	47.6333	-148.08855	52.738186
1448010631327	7.3330535888671875	2.34197998046875	-5.78668212890625	-7.634798770362561	0	-42.396545	23.161316	-2.1240234	48.564148	-149.38116	53.043056
1448010631367	9.018356323242188	3.680938720703125	-6.332977294921875	-7.283443693105114	0	-42.697144	24.21112	-2.2735596	48.863037	-149.48111	53.476467
1448010631407	6.6260833740234375	2.783538818359375	-6.175872802734375	-8.008337118870426	0	-42.24701	23.461914	-4.0740967	47.946106	-147.99628	54.67314
1448010631448	6.6903533935546875	0.01397705078125	-3.417022705078125	-7.993506582865126	0	-41.19568	24.810791	-7.2235107	42.842957	-142.19102	58.976585
1448010631488	2.1331329345703125	5.51025390625	-1.760284423828125	-7.381089246160267	0	-41.496277	25.561523	-10.223389	41.13794	-140.558	60.58972
1448010631528	10.708419799804688	2.73712158203125	-3.780029296875	-6.697659330742875	0	-40.59601	26.461792	-7.824707	42.413605	-141.67238	61.50746
1448010631569	7.9174346923828125	3.88446044921875	-3.940704345703125	-7.00281848285241	0	-38.645935	22.410583	-11.424255	28.55896	-130.19783	62.058895
1448010631609	7.7472381591796875	6.38861083984375	-2.66363525390625	-6.419534345909842	0	-30.096436	18.3609	-18.92395	15.066193	-117.360275	61.458813
1448010631650	9.402786254882813	7.60260009765625	-1.35919189453125	-5.851072922857458	0	-17.64679	15.960693	-27.774048	345.54446	-89.13363	55.537655
1448010631690	4.1790618896484375	4.6390380859375	4.116851806640625	-6.210080601716909	0	2.7542114	26.461792	-36.17401	318.14728	-57.62916	36.923794
1448010631730	0.7180023193359375	1.40411376953125	9.7261962890625	-6.364462237223837	0	8.453369	29.011536	-36.624146	309.607	-45.04868	24.705345
1448010631770	1.0702972412109375	5.016326904296875	11.484100341796875	-5.614855197736307	0	15.353394	33.511353	-35.723877	304.35886	-38.118565	17.338612
1448010631811	2.0890960693359375	4.5438232421875	12.9444580078125	-5.381966984784395	0	18.353271	37.261963	-34.97467	301.87875	-34.241352	14.937819
1448010631851	2.3771209716796875	3.859466552734375	10.969940185546875	-5.6585248186706	0	18.952942	36.660767	-34.674072	301.29514	-33.32867	14.815802
1448010631891	3.4351959228515625	4.306976318359375	8.9644775390625	-5.719223117417059	0	17.453003	35.160828	-34.373474	301.5985	-34.623398	15.879746
1448010631931	2.2069244384765625	6.596893310546875	7.192291259765625	-5.8070864034749095	0	17.002869	33.81195	-33.47473	302.2487	-37.08047	16.963188
1448010631972	1.5201873779296875	5.8006591796875	6.849517822265625	-6.0422455560238735	0	12.80365	30.66101	-33.773804	306.55566	-41.641808	19.60796
1448010632013	0.1074371337890625	7.4859619140625	4.064483642578125	-6.392235829260492	0	8.003235	26.31073	-32.724	312.1027	-48.30514	22.45987
1448010632057	-1.8170928955078125	8.401214599609375	4.0513916015625	-6.545386528657765	0	6.35376	23.161316	-32.273865	319.078	-56.549976	23.013813
1448010632098	0.8298797607421875	11.067230224609375	5.18682861328125	-5.6733278581452184	0	0.8041382	19.711304	-29.873657	331.4965	-67.03021	22.764261
1448010632138	5.2264251708984375	10.503082275390625	4.72265625	-5.284193152281734	0	-5.796814	18.061829	-28.074646	349.83597	-76.26363	18.688623
1448010632179	3.8077239990234375	9.658050537109375	2.505340576171875	-5.810212241998446	0	-7.8964233	17.76123	-27.024841	0.438385	-78.33841	14.67262
1448010632219	5.0538482666015625	8.78564453125	0.003570556640625	-6.085973257837843	0	-9.396362	16.711426	-26.574707	4.6893616	-78.498795	13.376248
1448010632259	4.0100555419921875	7.739471435546875	0.1094970703125	-6.362906626911803	0	-13.296509	18.511963	-26.274109	14.512085	-76.34477	11.988271
1448010632300	3.7791595458984375	7.915618896484375	-0.36181640625	-6.440153500182602	0	-10.68573	-17.604065	-26.843262	18.625671	-74.855225	11.900534
1448010632340	3.4744720458984375	7.568084716796875	0.415374755859375	-6.421643350564931	0	-12.786865	-16.55426	-25.944519	21.45221	-74.69806	12.560981
1448010632380	2.3866424560546875	9.196258544921875	0.0333251953125	-6.398341471617937	0	-13.2369995	-15.805054	-24.893188	22.99585	-75.74459	13.220876
1448010632420	2.8900909423828125	9.0665283203125	1.8424072265625	-6.091895908250859	0	-12.786865	-15.805054	-24.293518	23.623718	-75.91754	13.95686
1448010632461	3.1781158447265625	8.801116943359375	1.28778076171875	-6.164208814280832	0	-14.135742	-14.154053	-24.293518	23.840607	-75.123344	14.874071
1448010632501	2.4759063720703125	8.14532470703125	1.217559814453125	-6.365845592380257	0	-13.2369995	-13.705444	-23.544312	24.45581	-75.23337	15.3147
1448010632541	4.5123138427734375	9.85205078125	1.424652099609375	-5.833060428832649	0	-13.986206	-12.954712	-23.094177	25.017365	-75.98807	15.374065
1448010632582	3.3542633056640625	9.061767578125	1.13543701171875	-6.125368155154064	0	-14.43634	-13.85498	-22.494507	25.677399	-77.39035	15.982142
1448010632622	5.3025970458984375	13.38690185546875	-1.224700927734375	-5.627509432228967	0	-12.185669	-14.004517	-21.743774	23.453552	-79.73127	16.412716
1448010632662	-3.7082977294921875	11.907501220703125	2.393463134765625	-5.674479828192576	0	-9.486389	-13.705444	-23.094177	21.016266	-79.20723	15.209391
1448010632703	1.0524444580078125	11.69683837890625	1.043792724609375	-6.092696990829804	0	-9.336853	-15.805054	-22.044373	18.277405	-80.2309	14.717028
1448010632743	3.3590240478515625	8.3095703125	1.755523681640625	-6.1427061639299385	0	-7.685852	-15.205383	-21.743774	17.509827	-82.88516	15.473325
1448010632784	5.8512725830078125	9.446197509765625	3.395599365234375	-5.483051751395872	0	-7.38678	-14.305115	-22.193909	17.004852	-81.86297	14.988816
1448010632824	3.8458099365234375	6.27197265625	5.678375244140625	-5.832161947027723	0	-7.0861816	-14.454651	-22.79358	17.481232	-80.34496	13.833413
1448010632865	4.2742767333984375	10.341217041015625	1.298492431640625	-5.817366213161393	0	-7.38678	-14.904785	-21.743774	18.53183	-81.76303	13.25853
1448010632905	-0.6566619873046875	8.47857666015625	-1.12353515625	-7.218477221497874	0	-7.38678	-15.205383	-21.144104	18.823273	-82.92407	12.962998
1448010632946	1.5059051513671875	8.977264404296875	1.62103271484375	-6.327490592334323	0	-6.336975	-14.305115	-21.89331	18.673492	-83.23672	11.781264
1448010632986	2.6841888427734375	9.358123779296875	0.234466552734375	-6.302776492058327	0	-4.536438	-14.004517	-22.044373	18.673492	-83.23672	11.781264
1448010633026	5.8869781494140625	7.103912353515625	0.36181640625	-6.152464410126563	0	-3.9367676	-13.554382	-22.644043	17.894867	-82.27164	11.811147
1448010633067	3.6018218994140625	7.641876220703125	1.532958984375	-6.2321549935000835	0	-4.837036	-11.604309	-23.39325	17.42575	-80.300575	12.050777
1448010633107	3.3185577392578125	6.49810791015625	1.56866455078125	-6.432384505963599	0	-4.0863037	-9.355164	-25.64392	17.035889	-78.49164	12.201103
1448010633147	3.7291717529296875	4.8294677734375	3.731231689453125	-6.300908739232686	0	-2.4368286	-4.5547485	-25.193787	17.004456	-74.014435	11.513928
1448010633189	6.3297271728515625	4.168914794921875	8.6502685546875	-5.430653185599608	0	-1.2359619	-5.455017	-25.04425	17.220795	-74.847755	10.042698
1448010633229	-1.5921478271484375	1.65167236328125	-10.37603759765625	NaN	0	5.064392	-10.255432	-23.843384	13.599945	-82.42454	5.6049895
1448010633270	2.4152069091796875	5.242462158203125	1.788848876953125	-6.7330811787893765	0	3.5629272	-7.8552246	-24.143982	14.613922	-85.331436	2.0802991
1448010633310	-6.9075164794921875	13.004852294921875	-5.95330810546875	-9.427090171456737	0	1.9134521	-15.205383	-22.193909	25.071716	-93.08032	-3.9514608
1448010633350	-3.3762359619140625	7.001556396484375	1.062835693359375	-7.641384969586233	0	4.614258	-16.404724	-23.243713	24.20166	-96.27103	-5.9452615
1448010633391	-2.5597686767578125	10.66375732421875	-0.598663330078125	-7.067015119514853	0	8.06427	-18.0542	-23.843384	19.958313	-97.40222	-4.8327394
1448010633431	-1.9908599853515625	9.461669921875	2.4422607421875	-6.658097073415535	0	4.91333	-21.054077	-24.594116	22.765625	-98.801956	-3.4309886
1448010633471	-0.2151031494140625	10.238861083984375	-0.672454833984375	-6.748609957408961	0	3.7139893	-25.254822	-22.343445	27.839508	-103.00006	-3.0800605
1448010633512	-3.1977081298828125	6.989654541015625	-1.93048095703125	-8.442244674543481	0	4.1641235	-27.354431	-21.89331	28.369446	-107.291046	-3.3245602
1448010633552	-2.5074005126953125	6.6956787109375	-5.571258544921875	NaN	0	4.763794	-32.904053	-19.044495	28.589813	-111.49337	-3.577545
1448010633592	-1.6814117431640625	7.061065673828125	-3.302764892578125	-8.365458425384258	0	4.3136597	-35.754395	-18.743896	29.425964	-113.51207	-4.1149235
1448010633633	-0.8518524169921875	4.86517333984375	-3.950225830078125	-9.55541263412855	0	4.91333	-36.20453	-18.893433	29.541382	-113.8281	-4.165638
1448010633673	0.8346405029296875	3.026336669921875	-3.947845458984375	NaN	0	5.064392	-38.154602	-21.89331	29.562164	-112.812454	-5.2349453
1448010633713	0.3942718505859375	11.5992431640625	-5.40582275390625	-7.239949992550175	0	8.06427	-37.704468	-23.544312	28.216583	-111.59973	-6.724299
1448010633754	-0.4840850830078125	10.86846923828125	-4.309661865234375	-7.341904828170618	0	7.6141357	-39.65454	-26.394653	28.012299	-110.16652	-6.4583154
1448010633794	-1.7123565673828125	8.565460205078125	-8.387237548828125	NaN	0	9.114075	-41.604614	-25.793457	27.725922	-110.828995	-6.0673556
1448010633834	-0.8875579833984375	11.833709716796875	-4.895233154296875	-7.34673850408167	0	8.963013	-46.40503	-27.293396	27.257782	-111.13566	-5.407895
1448010633875	-1.6195220947265625	13.35595703125	-0.19757080078125	-6.409709637367996	0	10.76355	-49.404907	-27.894592	25.884766	-109.69716	-5.252545
1448010633915	0.1502838134765625	6.3624267578125	0.904541015625	-7.08313683944246	0	13.014221	-50.904846	-28.944397	22.581207	-108.062035	-4.6673636
1448010633955	-1.8432769775390625	6.21246337890625	-4.047821044921875	-9.239709043602463	0	15.863037	-51.654053	-31.193542	20.29718	-107.44456	-4.5605874
1448010633995	-0.9673004150390625	9.537841796875	0.701019287109375	-6.761676245791151	0	18.113708	-51.504517	-33.743286	19.073914	-103.94454	-6.5225086
1448010634036	1.4916229248046875	9.004638671875	-8.013519287109375	-8.230927981599498	0	22.314453	-51.805115	-36.44409	15.327911	-99.69725	-7.183635
1448010634076	-2.0932159423828125	6.942047119140625	0.201141357421875	-7.559385605648698	0	21.263123	-51.95465	-40.04364	15.425476	-96.435425	-7.3711267
1448010634117	-0.0865631103515625	8.805877685546875	0.812896728515625	-6.719172056920042	0	22.314453	-52.55432	-43.043518	15.107544	-93.298256	-7.9707575
1448010634157	-0.3472137451171875	9.78778076171875	-1.9661865234375	-7.07266867438773	0	23.06366	-53.604126	-43.943787	15.435822	-92.28678	-8.454185
1448010634197	-0.5995330810546875	9.393829345703125	-0.820037841796875	-6.982727052636474	0	23.963928	-53.155518	-46.043396	15.834259	-90.377594	-9.347351
1448010634238	0.2419281005859375	9.3426513671875	-0.484405517578125	-6.789950542373988	0	25.914001	-55.404663	-49.343872	15.211975	-87.30652	-10.555173
1448010634278	-0.7578277587890625	11.4373779296875	-1.979278564453125	-6.856977718004335	0	26.213074	-56.155396	-49.794006	15.16571	-86.23015	-11.082575
1448010634318	-0.5209808349609375	11.588531494140625	-1.0235595703125	-6.637374370785951	0	27.41394	-57.655334	-51.44348	14.654602	-84.51171	-12.356483
1448010634359	1.8939056396484375	10.49951171875	-0.9473876953125	-6.423401858731012	0	29.364014	-61.705017	-50.694275	12.261597	-84.81092	-13.480678
1448010634400	-1.0291900634765625	13.488067626953125	1.146148681640625	-6.118100814000742	0	30.11322	-69.055176	-47.244263	11.094238	-86.750046	-13.252491
1448010634440	-1.9384918212890625	11.160064697265625	-2.43988037109375	-7.2024317057296745	0	26.364136	-83.454895	-36.593628	10.623901	-90.294624	-11.547857
1448010634480	-1.6933135986328125	14.01531982421875	-0.960479736328125	-6.7137798469643535	0	22.314453	-90.95459	-26.54419	10.185913	-95.268486	-10.513444
1448010634521	-1.0303802490234375	12.878692626953125	0.8759765625	-6.239487871060163	0	16.0141	-95.60547	-18.144226	10.575745	-98.47739	-8.626099
1448010634561	-0.2960357666015625	9.2379150390625	-1.95904541015625	-7.164094775349595	0	7.4630737	-98.00415	-8.244324	12.586639	-103.98498	-3.7098649
1448010634602	-0.5186004638671875	7.96441650390625	1.834075927734375	-6.760308489363922	0	2.9632568	-97.254944	-3.894043	14.93808	-105.01322	-3.113537
1448010634642	-1.8789825439453125	6.473114013671875	1.291351318359375	-7.3805986009719735	0	-5.2856445	-96.354675	9.455872	22.2034	-109.06178	-2.696015
1448010634683	-1.2826995849609375	6.49810791015625	-1.434173583984375	-7.862060275229395	0	-9.336853	-93.80493	20.256042	28.777252	-112.21876	-3.4582117
1448010634723	-2.9108734130859375	5.509063720703125	-3.799072265625	NaN	0	-12.036133	-90.95459	28.50647	33.326538	-114.02846	-3.789445
1448010634765	-1.5409698486328125	4.22247314453125	-4.007354736328125	NaN	0	-14.585876	-89.45465	30.755615	36.14084	-113.01297	-3.844892
1448010634805	1.0155487060546875	8.74755859375	-5.126129150390625	-7.653235620844892	0	-15.336609	-90.20538	30.60608	38.241516	-110.28222	-4.428799
1448010634845	1.2714385986328125	17.3121337890625	-2.181610107421875	-5.7566663856955085	0	-15.187073	-88.705444	31.506348	40.638702	-108.10479	-5.0528307
1448010634886	-1.2957916259765625	8.3095703125	-10.52362060546875	NaN	0	-16.986084	-82.55463	41.40625	42.81363	-111.05367	-4.7714996
1448010634926	0.5263824462890625	10.241241455078125	-1.51629638671875	-6.7650005006167495	0	-19.236755	-79.40521	43.356323	43.182922	-111.92192	-3.4989684
1448010634966	2.6889495849609375	12.30621337890625	-0.4808349609375	-5.996832552644493	0	-19.535828	-75.505066	45.60547	44.189972	-111.29313	-2.8464022
1448010635007	-0.5019378662109375	7.887054443359375	-0.670074462890625	-7.215260170055302	0	-18.786621	-72.95532	43.955994	46.045654	-108.57108	-3.2990658
1448010635047	-2.3479156494140625	9.8663330078125	6.473419189453125	-6.0660336594772755	0	-16.836548	-72.654724	39.605713	47.207275	-103.87945	-4.388426
1448010635088	-1.6659393310546875	8.6571044921875	-1.872161865234375	-7.544078553494257	0	-17.286682	-71.90552	39.456177	47.26361	-102.05282	-5.112544
1448010635128	-3.7511444091796875	9.56640625	-2.961181640625	-8.117197679593367	0	-17.13562	-71.90552	36.906433	46.75232	-100.81915	-5.61128
1448010635168	-0.7959136962890625	8.882049560546875	-1.599609375	-7.259733986787327	0	-16.836548	-71.30432	33.906555	46.381317	-97.734634	-5.9719677
1448010635209	0.0788726806640625	9.241485595703125	0.727203369140625	-6.636811103952218	0	-15.936279	-70.40405	31.506348	47.283783	-94.86574	-6.5747757
1448010635249	-1.3529205322265625	9.5806884765625	-1.73052978515625	-7.257631942299062	0	-14.135742	-69.80438	31.20575	50.22882	-92.53733	-7.2849426
1448010635289	0.4180755615234375	10.06390380859375	1.84716796875	-6.295311441811256	0	-14.135742	-68.455505	28.50647	50.992645	-89.51297	-7.960752
1448010635330	-0.9411163330078125	10.933929443359375	-3.608642578125	-7.279908382048461	0	-12.336731	-67.85431	26.106262	49.903534	-87.55806	-9.35381
1448010635370	-0.2162933349609375	10.72802734375	0.396331787109375	-6.503863892482713	0	-10.68573	-65.7547	24.305725	47.905304	-86.0855	-11.215999
1448010635410	0.3169097900390625	11.30645751953125	-2.056640625	-6.713587441899028	0	-9.936523	-63.65509	25.205994	47.52008	-86.18018	-12.458593
1448010635451	-0.0401458740234375	11.186248779296875	2.014984130859375	-6.770091694325588	0	-11.436462	-60.055542	26.255798	47.572083	-86.48086	-12.381862
1448010635491	-0.5174102783203125	11.66351318359375	0.66412353515625	-6.3699989989482795	0	-11.886597	-54.95453	29.255676	48.34735	-90.01714	-10.99528
1448010635531	-1.5183563232421875	10.73992919921875	0.161865234375	-6.743360193789659	0	-12.486267	-51.654053	31.20575	48.325256	-92.25565	-10.695635
1448010635572	-1.7254486083984375	12.28717041015625	-0.333251953125	-6.959849458160948	0	-14.43634	-43.25409	34.95636	47.54669	-97.47944	-9.855106
1448010635612	-1.6361846923828125	10.165069580078125	-4.93450927734375	-7.910716140067762	0	-16.085815	-36.8042	37.205505	47.59961	-105.38439	-6.317744
1448010635652	-0.9161224365234375	9.884185791015625	-2.97784423828125	-7.359107586076938	0	-13.83667	-31.105042	38.856506	51.93866	-109.07404	-5.3925495
1448010635692	-1.2220001220703125	8.015594482421875	-0.39752197265625	-7.2775542535384385	0	-11.737061	-27.204895	39.605713	56.84503	-111.86196	-6.1697006
1448010635733	-4.3426666259765625	5.009185791015625	-1.913818359375	NaN	0	-9.936523	-23.605347	39.605713	59.524536	-114.592415	-6.604896
1448010635773	-2.4371795654296875	5.38885498046875	-4.084716796875	NaN	0	-9.936523	-20.30487	38.55591	60.94574	-116.71511	-6.6631002
1448010635813	-1.2707977294921875	6.801605224609375	-4.01806640625	-8.57666459971786	0	-8.287048	-19.255066	37.205505	61.98932	-117.35074	-6.9519806
1448010635854	-1.5207366943359375	6.515960693359375	-4.53936767578125	-9.131428671193609	0	-7.235718	-19.10553	34.35669	62.706818	-115.86107	-7.180792
1448010635894	-0.2186737060546875	8.479766845703125	-4.59649658203125	-7.892286400399039	0	-6.7855835	-19.255066	31.506348	63.87967	-112.89297	-7.3905244
1448010635934	0.7346649169921875	10.186492919921875	-5.699798583984375	-7.521570623180155	0	-6.036377	-18.804932	28.805542	64.72214	-111.27329	-7.066995
1448010635975	0.0503082275390625	10.74945068359375	-6.0985107421875	-7.638363811540515	0	-4.0863037	-17.304993	26.855469	66.7294	-111.22486	-6.135862
1448010636015	-0.1889190673828125	6.53857421875	-6.00091552734375	-9.216058194516732	0	-3.6361694	-16.255188	24.456787	67.94888	-112.54819	-5.039714
1448010636055	-0.6971282958984375	12.127685546875	-0.866455078125	-6.556353521215419	0	-1.3870239	-15.655518	21.905518	69.15195	-112.65026	-5.104309
1448010636098	-2.0753631591796875	10.538787841796875	-1.234222412109375	-7.11788241153746	0	-0.93688965	-16.705322	18.756104	69.161316	-111.54293	-5.285714
1448010636138	-1.1553497314453125	7.23602294921875	-2.681488037109375	-7.962912070695243	0	0.5630493	-17.755127	15.756226	68.11365	-110.92014	-5.2735233
1448010636179	0.3454742431640625	10.588775634765625	-1.0283203125	-7.2233103104535115	0	1.4633179	-18.205261	13.356018	68.209015	-109.19876	-5.8842206
1448010636219	-0.1829681396484375	9.947265625	-1.915008544921875	-7.004941751671041	0	2.6641846	-20.004272	9.605408	65.7623	-106.52991	-5.706147
1448010636259	-0.9899139404296875	7.9715576171875	-1.06878662109375	-7.374963296940914	0	3.413391	-19.404602	7.206726	67.24606	-102.66369	-5.4595776
1448010636300	-1.9599151611328125	8.529754638671875	-0.784332275390625	-7.401291869604138	0	4.614258	-19.854736	3.0059814	66.86487	-101.54757	-5.3208766
1448010636340	-0.4340972900390625	9.31646728515625	-2.034027099609375	-7.1896661270280795	0	6.413269	-20.30487	0.6057739	66.33829	-98.98343	-6.928005
1448010636381	-0.8006744384765625	9.324798583984375	-2.3946533203125	-7.330823187523698	0	7.4630737	-20.605469	-1.4938354	65.86926	-97.82561	-7.943264
1448010636421	-0.1127471923828125	9.06414794921875	-3.876434326171875	-7.553831385458315	0	9.564209	-21.655273	-4.4937134	65.33893	-96.76527	-8.772525
1448010636461	0.1395721435546875	8.59283447265625	-3.966888427734375	-7.6235933146056185	0	10.014343	-21.80481	-7.194519	65.23123	-96.144226	-9.268345
1448010636501	0.2074127197265625	9.436676025390625	-0.59033203125	-6.682955274351721	0	13.014221	-23.454285	-9.144592	64.04309	-95.36291	-10.148029
1448010636542	-0.2103424072265625	10.3043212890625	-0.0047607421875	-6.630247037930381	0	16.914368	-25.254822	-10.043335	59.624817	-97.7992	-10.5982275
1448010636583	-3.6154632568359375	11.56591796875	-0.786712646484375	-7.130083221530325	0	18.113708	-28.85437	-9.893799	56.11316	-101.707115	-10.931421
1448010636624	-3.4357452392578125	12.226470947265625	-4.32989501953125	-7.694532129765578	0	20.663452	-31.254578	-8.543396	52.472717	-106.06471	-10.288801
1448010636665	-2.4740753173828125	11.788482666015625	-4.29656982421875	-7.566546981785015	0	20.513916	-36.054993	-7.6446533	51.45816	-107.92169	-9.479122
1448010636705	0.7656097412109375	10.243621826171875	-3.1611328125	-7.005154167062512	0	19.914246	-42.355347	-5.543518	50.372925	-111.98714	-5.5993104
1448010636745	-1.5207366943359375	7.7001953125	-3.393218994140625	-8.07957358466704	0	19.914246	-45.80536	-4.6432495	52.773895	-113.556305	-5.844201
1448010636786	-2.2776947021484375	6.8956298828125	-3.417022705078125	-8.710738477915235	0	18.713379	-46.855164	-4.043579	55.442505	-114.98374	-6.9839063
1448010636826	-2.6502227783203125	6.16009521484375	-3.300384521484375	-9.348901502035387	0	18.113708	-51.504517	-3.4439087	56.565094	-116.26647	-7.5116696
1448010636866	-1.5838165283203125	6.65283203125	-4.200164794921875	-8.87447838346715	0	17.964172	-53.155518	-3.5934448	56.6994	-116.43826	-7.775296
1448010636907	-1.2196197509765625	7.246734619140625	-4.1466064453125	-8.52547505374	0	19.31305	-53.604126	-4.3441772	55.864227	-115.86118	-7.8696055
1448010636948	-0.8090057373046875	7.413360595703125	-4.200164794921875	-8.256054914078096	0	19.763184	-56.454468	-5.9936523	55.15866	-114.51945	-7.646208
1448010636989	-0.6626129150390625	8.403594970703125	-5.13446044921875	-8.19212745255755	0	20.063782	-58.70514	-7.6446533	53.071716	-112.3575	-7.4148307
1448010637029	-0.1151275634765625	8.82135009765625	-5.254669189453125	-7.948764338611576	0	19.464111	-60.50415	-8.843994	54.210693	-111.5523	-7.4424295
1448010637069	-0.2210540771484375	9.518798828125	-5.706939697265625	-7.911658034210298	0	18.414307	-61.254883	-8.543396	54.645325	-111.35033	-7.3008733
1448010637110	-1.2327117919921875	8.451202392578125	-7.185150146484375	-9.62400631417937	0	16.763306	-65.4541	-7.7941895	55.73181	-111.880295	-6.089424
1448010637150	-0.6614227294921875	11.87298583984375	-3.608642578125	-7.0492606062679615	0	15.414429	-68.90411	-7.4935913	56.71994	-111.84421	-5.5691314
1448010637191	0.5525665283203125	11.24456787109375	-2.217315673828125	-6.711471775582481	0	13.613892	-70.10498	-8.543396	56.87671	-110.47597	-4.517073
1448010637231	-3.8903961181640625	5.885162353515625	2.18756103515625	-7.761526096565746	0	13.313293	-70.70465	-12.14447	55.059845	-107.2737	-3.609704
1448010637271	-3.3750457763671875	9.12841796875	-1.077117919921875	-7.644135139600891	0	12.413025	-71.60492	-12.5946045	55.89685	-104.96724	-4.51233
1448010637311	-1.2446136474609375	10.810150146484375	-3.214691162109375	-7.286511641050246	0	17.964172	-69.955444	-17.694092	50.648865	-101.85011	-6.260889
1448010637352	1.2738189697265625	7.54547119140625	0.076171875	-6.824073883411444	0	16.914368	-70.40405	-23.094177	47.92209	-97.35776	-5.2953005
1448010637392	-0.3543548583984375	6.915863037109375	0.15948486328125	-7.21411219057983	0	16.763306	-69.055176	-26.843262	47.571075	-93.321495	-5.044255
1448010637432	-1.6564178466796875	9.696136474609375	-1.39727783203125	-7.229306691915249	0	16.763306	-69.80438	-29.093933	47.277496	-90.32662	-5.7891636
1448010637473	-0.6090545654296875	9.777069091796875	0.53558349609375	-6.691540125381064	0	19.613647	-66.804504	-34.19342	45.070618	-87.02087	-6.7010756
1448010637513	0.0038909912109375	9.185546875	-0.579620361328125	-6.872350947025319	0	20.812988	-66.204834	-36.143494	42.269684	-85.459404	-7.1587596
1448010637553	-0.8827972412109375	12.319305419921875	-1.94476318359375	-6.725732428175922	0	25.463867	-65.7547	-41.394043	39.112854	-81.73594	-9.150029
1448010637594	2.7734527587890625	13.323822021484375	-0.72125244140625	-5.885372852936571	0	28.01361	-67.70477	-41.54358	35.547516	-80.22795	-10.330595
1448010637634	4.4230499267578125	12.42047119140625	-1.21875	-5.853781876412214	0	27.713013	-71.30432	-40.193176	32.25	-80.12553	-10.354213
1448010637674	-3.4643096923828125	9.677093505859375	4.419158935546875	-6.545934002228465	0	24.864197	-76.85547	-36.143494	30.820251	-81.34641	-9.8053255
1448010637714	-3.5178680419921875	10.148406982421875	2.219696044921875	-6.8316655494025476	0	22.763062	-84.8053	-27.74353	30.148071	-84.71393	-8.066421
1448010637755	-5.4459686279296875	13.2464599609375	-1.27587890625	-7.2522679098523986	0	22.163391	-86.60431	-23.39325	28.211426	-90.24618	-7.543459
1448010637795	-6.5480804443359375	11.9658203125	-2.414886474609375	-8.073725684432166	0	21.864319	-90.504456	-13.793945	24.08841	-95.58935	-7.0835276
1448010637835	-1.0696563720703125	8.863006591796875	-3.140899658203125	-7.649645999210128	0	19.763184	-92.30499	-9.593201	21.487793	-98.135666	-5.9628134
1448010637876	-0.6507110595703125	6.89801025390625	4.800018310546875	-6.48284948215381	0	13.613892	-93.3548	5.105591	19.691132	-103.35519	-4.3589897
1448010637916	-1.0089569091796875	5.409088134765625	-1.710296630859375	-8.16652847877705	0	10.614014	-93.655396	18.606567	24.570465	-113.26199	-4.5679436
1448010637956	-0.2960357666015625	1.95635986328125	-10.064208984375	NaN	0	8.363342	-91.85486	24.456787	26.645538	-117.08407	-5.1122026
1448010637996	0.2419281005859375	1.2255859375	-4.64886474609375	NaN	0	5.8135986	-91.25519	27.156067	31.852661	-118.8544	-6.271499
1448010638037	0.3311920166015625	4.340301513671875	-6.11279296875	NaN	0	4.3136597	-92.45453	19.805908	33.0661	-115.184875	-6.411846
1448010638077	-1.0196685791015625	18.259521484375	-7.093505859375	-6.621266886195662	0	4.0130615	-93.655396	16.955566	33.816956	-111.7326	-6.5140004
1448010638118	-4.8615875244140625	11.959869384765625	-8.236083984375	NaN	0	0.5630493	-91.25519	23.106384	34.721436	-114.21568	-6.8475595
1448010638158	-8.421432495117188	9.92108154296875	1.133056640625	-8.1840385409247	0	-0.78582764	-90.504456	25.656128	35.73163	-116.49412	-7.432191
1448010638198	-2.0872650146484375	7.013458251953125	0.24755859375	-7.532011722738664	0	-0.48675537	-89.75525	24.606323	34.791016	-115.545265	-7.889785
1448010638239	0.3573760986328125	10.262664794921875	0.60223388671875	-6.456633615053214	0	-1.3870239	-89.904785	17.4057	33.437347	-113.58636	-7.500677
1448010638279	-4.7509002685546875	11.240997314453125	0.767669677734375	-7.112575738113553	0	1.9134521	-90.95459	0.15563965	26.039093	-104.12148	-7.6429296
1448010638319	-2.1670074462890625	7.538330078125	-2.695770263671875	-8.17088842146176	0	3.413391	-89.904785	-8.39386	21.837646	-99.54549	-8.047472
1448010638359	-1.7302093505859375	5.80303955078125	4.0133056640625	-6.962986829356389	0	4.91333	-87.805176	-16.493225	19.38562	-94.08878	-8.20471
1448010638399	-0.1472625732421875	7.691864013671875	1.905487060546875	-6.7325003755609085	0	6.564331	-87.205505	-19.494629	17.071655	-92.03797	-8.782981
1448010638440	0.6870574951171875	9.89013671875	-3.41583251953125	-7.130527935511463	0	8.213806	-83.90503	-24.44458	16.148926	-86.98577	-10.510118
1448010638481	-0.4210052490234375	9.610443115234375	-0.672454833984375	-6.888212939956976	0	9.863281	-80.60455	-31.793213	14.746643	-84.07092	-11.3357525
1448010638521	0.2574005126953125	10.81134033203125	-2.3994140625	-7.013664029912642	0	13.763428	-79.55475	-34.643555	12.554626	-82.40111	-12.745961
1448010638563	2.2402496337890625	11.8277587890625	-0.396331787109375	-6.109076959403472	0	16.464233	-78.65448	-35.993958	9.608582	-81.797455	-14.250163
1448010638603	2.2116851806640625	11.252899169921875	-0.222564697265625	-6.167641405385283	0	17.964172	-79.55475	-36.743164	7.3238525	-82.099396	-14.75458
1448010638644	-4.1212921142578125	10.676849365234375	4.133514404296875	-6.537185426215659	0	17.362976	-81.50482	-32.99408	5.8887634	-84.07599	-14.655363
1448010638684	-5.6161651611328125	13.878448486328125	-0.541534423828125	-7.027976437628301	0	14.51416	-86.75537	-24.893188	5.17453	-87.967384	-13.466905
1448010638724	-2.2586517333984375	14.068878173828125	1.131866455078125	-6.209087957559028	0	13.163757	-89.15405	-19.343567	2.8847961	-94.30916	-10.586073
1448010638764	-1.4909820556640625	13.11553955078125	-0.44512939453125	-6.463034821842717	0	11.064148	-90.05432	-16.194153	1.3330994	-96.53429	-8.94987
1448010638805	-2.3729095458984375	7.97869873046875	-0.58319091796875	-7.565484593198832	0	6.114197	-92.90466	-5.844116	0.36376953	-103.14706	-5.260193
1448010638845	-1.9134979248046875	6.113677978515625	0.574859619140625	-7.621413583958667	0	2.9632568	-93.80493	1.5060425	4.284973	-107.00032	-4.791939
1448010638885	-1.9896697998046875	4.69854736328125	2.789794921875	-7.461675164242665	0	-0.036621094	-92.604065	11.856079	9.848785	-112.03189	-5.3799434
1448010638926	-1.9337310791015625	4.021331787109375	-9.222747802734375	NaN	0	-1.0864258	-92.15546	18.005371	15.637024	-117.96794	-6.7682724
1448010638966	-1.6326141357421875	2.2396240234375	-4.623870849609375	NaN	0	-2.5863647	-91.104126	23.405457	18.036438	-119.401344	-7.3931556
1448010639006	-0.6709442138671875	4.453369140625	-5.168975830078125	NaN	0	-2.1362305	-91.85486	21.455383	21.168884	-116.960526	-8.314641
1448010639046	0.1502838134765625	6.6575927734375	-6.185394287109375	-9.017624525219771	0	-1.3870239	-93.3548	16.505432	22.114044	-115.04718	-8.909445
1448010639087	-3.1203460693359375	18.34759521484375	-8.2122802734375	-7.158021348709781	0	-3.1860352	-93.20526	17.106628	24.726807	-112.07298	-9.447151
1448010639129	-1.4624176025390625	4.097503662109375	-6.409149169921875	NaN	0	-5.886841	-92.15546	20.405579	25.516235	-114.739975	-8.376912
1448010639169	-5.1627044677734375	12.84417724609375	1.198516845703125	-6.826668855825115	0	-3.036499	-91.85486	19.355774	25.768433	-114.43138	-8.815461
1448010639210	-2.6204681396484375	11.03033447265625	-0.85931396484375	-7.05877315535275	0	-1.8356323	-91.104126	16.955566	24.453125	-113.40426	-9.501275
1448010639250	-0.0818023681640625	5.604278564453125	-1.056884765625	-7.6934053968779725	0	-3.036499	-91.55426	9.306335	21.761414	-110.26363	-7.957634
1448010639290	-7.7323150634765625	12.378814697265625	4.9464111328125	-6.285833360546003	0	0.11444092	-91.25519	-1.9439697	17.648315	-104.213585	-8.049456
1448010639331	-1.8611297607421875	9.76397705078125	-3.288482666015625	-7.658492781069008	0	2.5131226	-90.35492	-7.043457	14.692627	-100.06545	-9.290985
1448010639371	-1.1946258544921875	6.548095703125	1.81146240234375	-7.129860892246581	0	3.7139893	-90.05432	-13.194275	14.436127	-96.17971	-9.397714
1448010639412	0.4037933349609375	9.274810791015625	0.1475830078125	-6.6719250353842	0	6.413269	-87.65411	-18.443298	12.277679	-92.54865	-9.833476
1448010639453	-0.0020599365234375	10.44952392578125	-2.55889892578125	-6.997941056041769	0	7.3135376	-86.90491	-22.193909	11.795258	-89.87291	-10.685407
1448010639493	0.4537811279296875	9.42120361328125	-0.139251708984375	-6.686386380353651	0	9.263611	-85.10437	-25.793457	10.253571	-87.65547	-11.456556
1448010639534	-0.4019622802734375	11.29693603515625	-1.788848876953125	-6.7889643563329765	0	12.263489	-83.454895	-28.643799	7.67572	-84.816696	-13.193136
1448010639574	-0.2662811279296875	11.45166015625	-0.71649169921875	-6.571034001739175	0	14.964294	-82.10449	-30.293274	5.8072815	-83.8935	-14.842105
1448010639615	2.3628387451171875	10.655426025390625	-0.580810546875	-6.279922495090767	0	17.362976	-81.355286	-31.344604	3.981964	-83.80656	-15.552774
1448010639656	-1.6921234130859375	11.35882568359375	0.0999755859375	-6.264768422574054	0	17.362976	-80.90515	-31.344604	3.43573	-84.07478	-15.667365
1448010639696	-3.4500274658203125	11.3421630859375	2.533905029296875	-6.577661993562889	0	14.964294	-83.00476	-26.994324	3.5632935	-87.14489	-13.969192
1448010639737	-5.7101898193359375	10.910125732421875	0.560577392578125	-7.406493063702356	0	13.464355	-85.70557	-20.393372	3.199707	-91.81921	-12.796494
1448010639777	-3.0144195556640625	12.40142822265625	-1.181854248046875	-6.942135928145491	0	11.514282	-87.805176	-13.194275	1.6813049	-96.38211	-11.211116
1448010639817	-2.1324920654296875	11.15887451171875	-1.262786865234375	-7.020277050115208	0	10.614014	-88.10425	-12.14447	0.8534546	-98.57063	-9.706467
1448010639858	-0.5554962158203125	8.9332275390625	1.50677490234375	-6.662636541944875	0	4.0130615	-90.05432	-4.4937134	1.038208	-103.84926	-4.988384
1448010639898	-0.6971282958984375	6.266021728515625	1.78765869140625	-7.094303533161716	0	-2.2857666	-89.305115	4.5059204	4.954468	-107.77904	-3.760053
1448010639938	-1.6076202392578125	5.904205322265625	-0.108306884765625	-7.7600716717713905	0	-2.7359009	-89.45465	12.606812	11.401764	-113.234436	-4.6802692
1448010639979	-2.3943328857421875	4.66522216796875	-7.12921142578125	NaN	0	-3.036499	-89.305115	18.606567	17.346344	-118.5492	-5.6797113
1448010640020	-1.6814117431640625	3.742828369140625	-3.00164794921875	NaN	0	-4.685974	-89.00452	23.25592	21.200348	-119.40176	-7.66953
1448010640060	-2.0813140869140625	4.042755126953125	-5.718841552734375	NaN	0	-3.9367676	-89.75525	17.855835	22.72348	-117.35581	-8.418678
1448010640100	-0.8506622314453125	8.058441162109375	-6.599578857421875	-9.411720821731903	0	-4.536438	-92.30499	10.955811	23.63324	-112.82588	-9.373481
1448010640142	-3.0870208740234375	16.38616943359375	-10.691436767578125	-8.191758895744789	0	-5.2856445	-91.70532	11.856079	25.158752	-110.16083	-9.569263
1448010640183	0.2133636474609375	1.319610595703125	-5.26300048828125	NaN	0	-9.336853	-90.65552	16.955566	25.857086	-113.97097	-7.898769
1448010640223	-1.3160247802734375	6.701629638671875	-0.241607666015625	-7.538561818579145	0	-8.135986	-91.25519	14.855957	26.605194	-114.45319	-7.4729195
1448010640263	-1.5528717041015625	10.548309326171875	-1.0283203125	-6.983991754144704	0	-6.6360474	-93.50433	10.656738	25.562653	-112.27792	-8.499161
1448010640304	-1.2636566162109375	6.618316650390625	1.303253173828125	-7.226306759298894	0	-8.135986	-93.3548	3.6056519	23.415192	-109.751884	-7.375581
1448010640344	0.0074615478515625	5.67449951171875	0.293975830078125	-7.36202705372729	0	-6.336975	-92.45453	-6.1431885	20.572266	-105.10244	-6.3895373
1448010640385	-5.3721771240234375	10.94464111328125	2.788604736328125	-6.915048733709543	0	-2.886963	-92.15546	-11.09314	16.120026	-99.899666	-8.045526
1448010640425	-0.9625396728515625	6.994415283203125	1.50201416015625	-7.06180678911729	0	0.41351318	-90.35492	-20.843506	14.13797	-96.582146	-8.914384
1448010640466	-0.8209075927734375	7.3050537109375	1.469879150390625	-6.986311846538604	0	1.9134521	-88.25531	-26.843262	12.222626	-90.916916	-8.99167
1448010640506	0.2443084716796875	10.429290771484375	-1.447265625	-6.769111955881296	0	2.2140503	-87.65411	-30.89447	11.719574	-88.23405	-9.575262
1448010640546	-0.8613739013671875	9.370025634765625	-0.363006591796875	-6.952542337372707	0	4.1641235	-86.75537	-35.394287	10.690735	-87.01178	-9.928037
1448010640587	-0.3972015380859375	10.434051513671875	-1.108062744140625	-6.818492366154573	0	7.1640015	-85.40497	-39.894104	8.8133545	-83.68622	-11.50058
1448010640627	-0.3662567138671875	10.945831298828125	-1.0902099609375	-6.726118767461253	0	11.36322	-83.454895	-42.14325	6.677826	-82.57041	-13.217746
1448010640670	1.3547515869140625	11.031524658203125	-1.34014892578125	-6.483028529527921	0	15.713501	-82.40509	-43.79425	4.3911133	-82.27891	-14.449059
1448010640711	0.5311431884765625	10.80657958984375	-0.076171875	-6.450776568512533	0	17.663574	-84.5047	-44.39392	3.4891968	-82.32598	-14.669543
1448010640754	-1.7992401123046875	11.552825927734375	0.601043701171875	-6.588738984262751	0	17.663574	-83.454895	-43.943787	2.4605713	-82.991264	-14.839106
1448010640794	-3.1691436767578125	10.0615234375	2.4517822265625	-6.749777795928476	0	14.964294	-91.55426	-37.34436	2.021576	-85.33301	-13.875716
1448010640835	-3.9820404052734375	13.7177734375	-0.9569091796875	-6.84369199391222	0	14.064026	-98.30475	-25.64392	358.6585	-95.252045	-11.059779
1448010640875	-1.3029327392578125	12.257415771484375	-2.44464111328125	-6.889436665706681	0	11.064148	-100.55542	-17.094421	355.78653	-100.327225	-7.647017
1448010640916	-0.8530426025390625	8.741607666015625	1.155670166015625	-6.799236498610088	0	6.713867	-103.404236	-10.794067	355.67108	-104.16595	-4.942594
1448010640956	-0.3650665283203125	6.11248779296875	1.519866943359375	-7.110809168350071	0	4.614258	-103.85437	-6.744385	356.90488	-106.13544	-4.2251797
1448010640996	-1.2303314208984375	6.033935546875	1.61151123046875	-7.273792199071293	0	1.3137817	-104.904175	3.3065796	3.3580322	-114.09072	-4.6965156
1448010641037	-2.3336334228515625	4.2486572265625	-11.82568359375	NaN	0	0.26397705	-103.85437	21.606445	8.6744995	-120.237564	-6.873383
1448010641077	-0.7673492431640625	3.502410888671875	-2.37322998046875	-9.205075549092921	0	-0.18615723	-104.904175	22.956848	11.994171	-121.26893	-8.054905
1448010641118	-0.7066497802734375	3.76544189453125	-5.906890869140625	NaN	0	0.5630493	-106.555176	19.656372	13.248138	-119.622345	-8.900411
1448010641158	-1.0744171142578125	5.585235595703125	-6.109222412109375	NaN	0	0.7141113	-109.254456	11.555481	14.666992	-115.099174	-10.065383
1448010641198	-2.4288482666015625	19.003387451171875	-4.44415283203125	-6.323729581431564	0	0.7141113	-111.50513	7.5057983	16.69513	-110.92713	-10.999446
1448010641238	-5.1508026123046875	12.252655029296875	-10.768798828125	NaN	0	-2.886963	-111.50513	12.606812	17.284576	-112.35415	-9.571098
1448010641279	-0.1341705322265625	5.157958984375	-2.955230712890625	-8.368351850598161	0	-2.5863647	-112.25433	13.505554	18.395905	-113.970055	-8.564356
1448010641319	-4.3379058837890625	14.0748291015625	-0.146392822265625	-6.709741850922485	0	-1.53656	-112.405396	10.806274	17.791534	-112.25507	-9.282247
1448010641359	0.7287139892578125	7.644256591796875	-0.146392822265625	-6.938398863609969	0	0.11444092	-112.85553	6.4559937	16.573486	-111.25058	-9.232442
1448010641399	0.6763458251953125	5.8720703125	0.999755859375	-7.059206326521386	0	3.263855	-112.25433	-7.6446533	11.555908	-105.52777	-7.654858
1448010641440	-5.1400909423828125	11.97772216796875	3.733612060546875	-6.555255157302933	0	6.713867	-112.70447	-14.24408	8.104858	-100.71247	-8.890801
1448010641480	-1.1041717529296875	7.9810791015625	-1.848358154296875	-7.564157315261784	0	5.6640625	-112.405396	-16.793823	8.4878845	-97.63783	-9.574495
1448010641520	-1.5171661376953125	7.153900146484375	0.71649169921875	-7.2860394060035345	0	7.3135376	-111.05499	-23.544312	7.8890686	-93.958435	-9.704597
1448010641560	-0.5043182373046875	7.4002685546875	2.332763671875	-6.768720148975964	0	8.213806	-109.854126	-26.994324	7.2599487	-92.11176	-9.895468
1448010641601	-1.0160980224609375	10.38763427734375	-1.184234619140625	-6.945253876976399	0	10.76355	-108.654785	-31.643677	7.41037	-89.19506	-10.508698
1448010641641	-0.5269317626953125	9.30694580078125	-0.1666259765625	-6.871742582420154	0	12.413025	-107.15485	-37.643433	4.690674	-86.046234	-11.63693
1448010641682	-0.0365753173828125	11.260040283203125	-0.546295166015625	-6.539006114615114	0	20.213318	-106.70471	-41.69464	2.743805	-84.76961	-12.997444
1448010641722	0.4109344482421875	11.6468505859375	-0.282073974609375	-6.375024405674513	0	22.613525	-106.10504	-42.443848	0.1463623	-83.955345	-14.558125
1448010641762	2.2664337158203125	11.01605224609375	-1.246124267578125	-6.33725399616355	0	24.263	-105.20477	-42.593384	359.11636	-83.85592	-15.081599
1448010641803	0.0800628662109375	11.888458251953125	-0.146392822265625	-6.36826780314955	0	24.563599	-107.455444	-41.093445	357.4079	-84.604675	-15.6862
1448010641843	-3.1917572021484375	12.55853271484375	1.736480712890625	-6.4744451078039695	0	23.513794	-108.35419	-39.14337	357.46	-85.27692	-15.414147
1448010641886	-3.4369354248046875	12.107452392578125	0.912872314453125	-6.710895026617271	0	18.263245	-117.05475	-23.243713	357.1825	-92.81248	-13.219033
1448010641926	-2.8763580322265625	11.5897216796875	-0.36895751953125	-6.917931426430216	0	14.064026	-119.15436	-13.943481	356.3478	-97.26651	-11.447068
1448010641966	-1.8801727294921875	11.543304443359375	-3.100433349609375	-7.244823592063934	0	7.3135376	-120.355225	-4.7943115	355.3538	-101.94699	-8.256341
1448010642007	-2.2788848876953125	8.7427978515625	2.229217529296875	-6.85818847967858	0	1.1642456	-120.05463	2.5558472	358.03195	-104.88849	-6.2512717
1448010642047	-0.9351654052734375	6.32672119140625	1.903106689453125	-7.1057367166059775	0	-3.3355713	-119.454956	14.1067505	2.764862	-108.989655	-5.3587356
1448010642087	-1.6671295166015625	5.8958740234375	-2.09234619140625	-8.344957665011824	0	-5.735779	-116.45508	28.656006	8.392609	-114.75347	-6.1885324
1448010642128	-1.6576080322265625	4.199859619140625	-5.02734375	NaN	0	-6.185913	-112.85553	37.356567	13.659393	-119.272125	-7.956231
1448010642169	-1.9611053466796875	3.4345703125	-3.816925048828125	NaN	0	-5.5862427	-113.60474	38.105774	16.405579	-119.76551	-8.746926
1448010642209	-1.2303314208984375	4.197479248046875	-5.570068359375	NaN	0	-5.1361084	-114.35547	36.4563	17.308289	-117.637344	-9.346315
1448010642249	-1.6421356201171875	8.774932861328125	-6.5650634765625	-9.053118902262016	0	-4.386902	-118.55469	26.855469	18.191437	-113.54592	-10.379554
1448010642289	-2.0027618408203125	15.32928466796875	-6.198486328125	-7.136761709199705	0	-4.386902	-118.55469	26.855469	19.198853	-111.88086	-10.915624
1448010642330	-3.8856353759765625	7.053924560546875	-10.387939453125	NaN	0	-9.786987	-116.004944	34.205627	21.143188	-114.11	-9.406134
1448010642370	-0.7292633056640625	6.9241943359375	-4.440582275390625	-8.482081689487527	0	-10.08606	-114.95514	35.406494	21.967682	-115.23582	-8.887704
1448010642410	-3.7487640380859375	15.05078125	0.43560791015625	-6.380578236778068	0	-9.486389	-115.25421	27.606201	22.00647	-112.84992	-9.586795
1448010642451	-1.4314727783203125	5.8958740234375	-1.818603515625	-8.180009169615115	0	-10.235596	-116.604614	21.006775	19.54721	-110.46437	-8.638397
1448010642491	-0.4805145263671875	6.4671630859375	3.77764892578125	-6.6818124095626015	0	-8.735657	-117.05475	8.105469	14.456543	-103.37935	-7.568513
1448010642532	-3.7618560791015625	13.327392578125	-0.380859375	-6.7759767763010466	0	-3.1860352	-117.95502	-1.1932373	11.348328	-100.78417	-8.1075535
1448010642572	-0.7280731201171875	7.309814453125	0.18804931640625	-7.2047178640426335	0	-4.9865723	-116.604614	-7.4935913	8.955963	-95.65253	-8.810213
1448010642613	-0.4531402587890625	7.520477294921875	1.584136962890625	-6.865261189352127	0	-4.536438	-115.104675	-14.993286	7.3157043	-92.14959	-8.44436
1448010642653	0.5109100341796875	9.9853515625	-1.305633544921875	-6.774995135945679	0	-3.6361694	-113.905334	-18.59436	6.7485046	-89.67758	-8.717376
1448010642694	-0.0389556884765625	9.281951904296875	-0.180908203125	-6.796269783446455	0	-1.0864258	-113.005066	-23.243713	4.976288	-87.742455	-9.337215
1448010642734	0.0253143310546875	9.74017333984375	-0.520111083984375	-6.76597891428181	0	0.5630493	-111.8042	-27.593994	2.9849548	-85.78638	-10.428663
1448010642774	-0.6626129150390625	10.691131591796875	-1.022369384765625	-6.805575293005372	0	5.5130005	-111.354065	-31.044006	1.1679382	-84.44572	-12.085325
1448010642815	0.4061737060546875	10.7613525390625	-1.422271728515625	-6.684860978780967	0	9.413147	-111.05499	-32.844543	358.7312	-83.80789	-13.743939
1448010642855	2.1224212646484375	11.32550048828125	-1.153289794921875	-6.3002298030573245	0	10.614014	-110.60486	-33.743286	356.68323	-83.71511	-14.43779
1448010642895	0.9203338623046875	11.752777099609375	-0.703399658203125	-6.346872943755398	0	10.462952	-110.90546	-33.143616	356.0434	-83.866425	-14.520063
1448010642936	-2.8620758056640625	11.540924072265625	2.514862060546875	-6.460899725446339	0	8.813477	-112.1048	-30.143738	355.33936	-86.739296	-13.564463
1448010642977	-3.8273162841796875	10.4947509765625	1.4234619140625	-6.962149858681768	0	4.91333	-115.55481	-17.094421	354.3093	-91.3083	-12.395087
1448010643017	-4.4902496337890625	13.399993896484375	-1.079498291015625	-7.008342332865022	0	2.5131226	-117.50488	-8.543396	352.8361	-96.30835	-11.009736
1448010643057	-1.8766021728515625	11.87060546875	-3.04925537109375	-7.171311035805619	0	-2.5863647	-116.604614	-0.29449463	350.0802	-101.356964	-7.8958874
1448010643098	-0.9339752197265625	9.120086669921875	2.041168212890625	-6.608588170271107	0	-6.185913	-116.30554	7.356262	350.482	-104.871666	-5.713188
1448010643138	-0.8113861083984375	5.5435791015625	1.669830322265625	-7.27637801064221	0	-9.185791	-114.505005	18.005371	352.61737	-109.20053	-4.7835426
1448010643178	-3.2453155517578125	5.735198974609375	-6.13897705078125	NaN	0	-8.586121	-112.405396	31.655884	357.4366	-114.86885	-6.195654
1448010643219	-1.6338043212890625	3.504791259765625	-3.9561767578125	NaN	0	-8.135986	-108.95538	41.40625	2.9660034	-120.10458	-8.670495
1448010643259	-1.8159027099609375	3.859466552734375	-5.142791748046875	NaN	0	-7.836914	-107.60498	42.155457	6.4612427	-120.98116	-9.765855
1448010643302	-0.7982940673828125	5.00799560546875	-6.33892822265625	NaN	0	-8.135986	-111.05499	37.356567	7.668396	-119.06957	-9.942453
1448010643342	-0.4686126708984375	7.13128662109375	-6.387725830078125	-9.282245043775509	0	-7.836914	-111.95526	33.605957	8.947388	-114.78577	-10.252617
1448010643383	-2.4943084716796875	18.259521484375	-6.9744873046875	-6.8416841988333275	0	-9.336853	-115.40527	28.956604	11.924774	-111.417595	-10.285895
1448010643423	-1.7671051025390625	3.87493896484375	-8.2313232421875	NaN	0	-13.386536	-111.8042	34.35669	13.364929	-113.94854	-8.816739
1448010643463	-2.3157806396484375	8.365509033203125	0.817657470703125	-7.186030240528252	0	-13.83667	-111.8042	34.205627	14.192444	-113.43805	-8.788833
1448010643503	-4.7068634033203125	18.063140869140625	-0.893829345703125	-6.276380726340474	0	-12.486267	-115.104675	27.9068	12.338989	-110.66887	-9.216632
1448010643544	-1.1422576904296875	6.7528076171875	0.76885986328125	-7.280850647819728	0	-14.286804	-114.05487	23.405457	9.894196	-108.00937	-8.192488
1448010643584	-1.3600616455078125	6.277923583984375	2.729095458984375	-7.041286745147859	0	-13.386536	-115.704346	9.605408	8.184479	-105.8167	-7.5724325
1448010643624	-3.4012298583984375	6.277923583984375	2.729095458984375	-7.041286745147859	0	-13.386536	-115.704346	9.605408	6.0995483	-103.518196	-7.4558315
1448010643665	-1.1803436279296875	7.570465087890625	0.62603759765625	-7.1577966744174475	0	-11.585999	-116.004944	-5.393982	2.2904358	-96.096504	-8.588496
1448010643706	-1.2148590087890625	6.911102294921875	1.1854248046875	-7.183306632719033	0	-10.08606	-114.80408	-12.294006	0.5765991	-92.65834	-8.839014
1448010643746	0.5977935791015625	10.338836669921875	-0.470123291015625	-6.571401867271833	0	-7.836914	-114.35547	-17.694092	359.63013	-89.90769	-9.640173
1448010643787	-0.8292388916015625	9.461669921875	-1.667449951171875	-7.167474940609755	0	-6.336975	-114.05487	-22.193909	358.42752	-87.77616	-10.505036
1448010643827	-0.3936309814453125	9.91156005859375	-0.781951904296875	-6.850931349279564	0	-2.886963	-113.4552	-27.593994	356.3081	-85.89136	-11.677176
1448010643867	-0.1948699951171875	10.756591796875	-1.798370361328125	-6.846304163359735	0	1.9134521	-112.85553	-30.444336	354.03384	-84.74776	-13.205783
1448010643908	2.0855255126953125	11.2041015625	-1.4091796875	-6.359797512520435	0	3.5629272	-112.405396	-32.39441	351.6955	-84.25616	-14.306102
1448010643948	1.6677703857421875	11.34930419921875	-1.08544921875	-6.3523815115122	0	4.763794	-112.70447	-32.39441	350.00714	-84.3075	-14.694786
1448010643988	-2.6728363037109375	12.2371826171875	2.361328125	-6.35324301896306	0	2.8137207	-114.95514	-29.394531	349.2571	-85.372345	-14.532152
1448010644029	-2.9656219482421875	9.80682373046875	1.83526611328125	-6.861015525654066	0	-0.48675537	-116.90521	-22.944641	348.34366	-88.49573	-13.111903
1448010644069	-5.0889129638671875	13.657073974609375	-1.096160888671875	-7.0731040475482105	0	-3.9367676	-118.855286	-13.644409	347.71884	-95.385956	-11.311356
1448010644109	-2.7525787353515625	12.145538330078125	-1.3948974609375	-6.978515465586457	0	-7.98645	-118.855286	-6.5933228	345.70032	-99.92192	-8.671574
1448010644150	-1.8373260498046875	9.222442626953125	-0.4427490234375	-7.171762708304184	0	-13.386536	-118.70422	0.4562378	344.88522	-102.082794	-7.127477
1448010644190	-0.2162933349609375	6.708770751953125	0.67840576171875	-7.128749522712118	0	-17.13562	-116.30554	8.406067	347.04193	-107.32328	-4.7856655
1448010644230	-0.4590911865234375	5.54595947265625	2.250640869140625	-7.0978162959598565	0	-20.436096	-114.20441	19.656372	348.8328	-109.4996	-4.624494
1448010644270	-3.0905914306640625	5.956573486328125	-7.6029052734375	NaN	0	-20.436096	-111.354065	35.406494	357.1957	-118.18173	-7.4726076
1448010644311	-1.7468719482421875	3.67498779296875	-3.4896240234375	NaN	0	-19.836426	-109.40552	43.055725	1.7011719	-120.528625	-9.084142
1448010644351	-1.6837921142578125	4.3343505859375	-4.904754638671875	NaN	0	-20.436096	-109.70459	41.40625	2.8746643	-120.12912	-9.308523
1448010644391	-1.9265899658203125	6.54571533203125	-6.37701416015625	NaN	0	-21.636963	-112.1048	34.806824	4.380371	-115.46871	-9.747127
1448010644432	-1.6338043212890625	9.648529052734375	-6.50079345703125	-8.576180854174455	0	-21.336365	-114.20441	31.356812	5.129242	-113.298676	-9.986009
1448010644472	-1.1851043701171875	17.537078857421875	-5.368927001953125	-6.4925318828135765	0	-21.4859	-116.15448	29.10614	7.1750183	-111.37013	-9.984011
1448010644512	-1.5362091064453125	4.342681884765625	-5.556976318359375	NaN	0	-28.23639	-112.1048	35.105896	8.2795105	-114.51634	-7.840313
1448010644552	-5.8411102294921875	12.469268798828125	1.084259033203125	-7.02947601959526	0	-25.985718	-112.55493	33.155823	8.638855	-114.24763	-8.027995
1448010644593	-3.1417694091796875	10.34002685546875	-2.10662841796875	-7.55013616729177	0	-24.035645	-114.80408	29.10614	6.1074524	-112.317314	-9.229854
1448010644633	0.4109344482421875	6.418365478515625	0.403472900390625	-7.117218504721125	0	-26.286316	-116.30554	15.606689	2.8555908	-108.580444	-7.2004614
1448010644673	-1.5124053955078125	8.0382080078125	3.951416015625	-6.569746801609673	0	-24.336243	-116.604614	1.0559082	358.07007	-103.096115	-6.088858
1448010644714	-3.1905670166015625	11.3992919921875	-2.148284912109375	-7.344803894820579	0	-20.88623	-117.65442	-5.844116	353.4387	-99.42444	-7.0671844
1448010644754	-0.6638031005859375	7.03369140625	1.519866943359375	-6.997729186127735	0	-19.68689	-115.704346	-16.343689	351.45743	-95.91856	-7.3904333
1448010644795	0.6632537841796875	8.2381591796875	0.827178955078125	-6.687530921100766	0	-17.585754	-116.004944	-22.944641	349.20297	-92.43025	-7.459544
1448010644836	0.3716583251953125	9.574737548828125	-1.37823486328125	-6.87945787657275	0	-15.336609	-116.004944	-28.044128	348.59424	-89.82512	-7.8859982
1448010644876	-0.9113616943359375	9.1903076171875	-0.958099365234375	-7.100893704479883	0	-12.635803	-114.20441	-33.29315	347.3966	-87.47877	-8.629617
1448010644917	-0.9173126220703125	11.169586181640625	-1.434173583984375	-6.837071421995414	0	-7.98645	-114.05487	-37.794495	345.14914	-84.98562	-11.271314
1448010644957	0.7822723388671875	10.995819091796875	-1.188995361328125	-6.552510869484989	0	-2.886963	-114.20441	-41.394043	342.5106	-84.24838	-12.885206
1448010644998	2.1402740478515625	11.145782470703125	-1.341339111328125	-6.35048695103494	0	-0.48675537	-113.60474	-42.593384	341.43802	-84.19276	-13.301806
1448010645038	-1.2053375244140625	12.32049560546875	0.522491455078125	-6.395200062125108	0	1.4633179	-115.40527	-42.443848	339.43216	-84.774315	-13.554976
1448010645078	-3.1977081298828125	11.7420654296875	2.72552490234375	-6.44953547840551	0	-0.18615723	-116.75415	-38.24463	339.41064	-86.859	-12.572864
1448010645119	-4.2212677001953125	10.219818115234375	0.71649169921875	-7.215260170055302	0	-2.7359009	-120.50476	-29.093933	338.52832	-91.67437	-11.583649
1448010645159	-3.5142974853515625	13.771331787109375	0.646270751953125	-6.504584698141006	0	-2.886963	-122.454834	-20.69397	336.5566	-96.26263	-10.473109
1448010645199	-0.8220977783203125	12.024139404296875	-1.208038330078125	-6.645270644191207	0	-6.6360474	-123.50464	-12.5946045	333.66452	-101.08357	-7.5204687
1448010645239	-0.9232635498046875	8.70947265625	0.555816650390625	-6.9183434745445584	0	-10.386658	-122.75543	-3.7445068	334.07996	-105.06788	-5.401311
1448010645280	-0.1198883056640625	6.356475830078125	0.417755126953125	-7.2269987417883375	0	-14.43634	-122.154236	6.0058594	337.24597	-108.90737	-4.6351647
1448010645320	-0.7721099853515625	5.653076171875	1.1473388671875	-7.351339310437496	0	-16.085815	-119.15436	18.30597	342.1521	-113.574844	-5.535297
1448010645361	-2.3003082275390625	5.1817626953125	-8.57171630859375	NaN	0	-16.687012	-116.90521	31.80542	347.62686	-118.6343	-7.595894
1448010645401	-1.8730316162109375	3.868988037109375	-2.769561767578125	NaN	0	-16.687012	-115.704346	35.85663	351.3894	-119.64811	-8.806928
1448010645441	-1.3612518310546875	4.31292724609375	-5.223724365234375	NaN	0	-16.53595	-117.204285	32.85675	352.8718	-117.91981	-9.179276
1448010645482	-1.6457061767578125	7.72637939453125	-6.078277587890625	-9.757654827788508	0	-14.736938	-120.355225	25.35553	353.6581	-114.04283	-9.796609
1448010645522	-2.6407012939453125	18.367828369140625	-4.052581787109375	-6.389796627242659	0	-14.736938	-121.40503	21.305847	355.21494	-110.76252	-10.332992
1448010645562	-2.6026153564453125	9.728271484375	-10.692626953125	NaN	0	-17.436218	-120.50476	27.755737	356.56256	-112.91594	-9.203544
1448010645603	-2.3776702880859375	11.874176025390625	0.885498046875	-6.5844883035841715	0	-18.18695	-117.80548	30.456543	357.73297	-114.47182	-8.310419
1448010645643	-2.5728607177734375	12.32049560546875	-0.46417236328125	-6.759722495994618	0	-17.736816	-119.15436	27.00653	357.58496	-112.77816	-8.384725
1448010645683	-1.0018157958984375	4.930633544921875	-1.65911865234375	-8.300047944251613	0	-19.085693	-118.25409	22.65625	355.99527	-111.12748	-7.3745317
1448010645724	-1.7361602783203125	7.79779052734375	2.65411376953125	-6.854356104493619	0	-19.085693	-118.40515	13.356018	353.66376	-107.684364	-6.460686
1448010645764	-2.8775482177734375	12.962005615234375	0.58795166015625	-6.539734674092427	0	-14.135742	-119.90509	0.30670166	346.03403	-100.6606	-7.900548
1448010645805	-0.4400482177734375	10.867279052734375	-1.418701171875	-6.928457080505024	0	-11.135864	-119.454956	-6.5933228	345.09222	-99.15933	-8.22136
1448010645845	-0.6221466064453125	7.26934814453125	0.70697021484375	-7.094742379672249	0	-10.536194	-118.25409	-14.393616	343.9409	-95.595665	-7.902719
1448010645885	0.6144561767578125	8.451202392578125	1.323486328125	-6.650357251710063	0	-9.336853	-117.50488	-20.544434	342.542	-92.245636	-8.022794
1448010645926	-0.3043670654296875	9.642578125	-1.7186279296875	-7.046240760719211	0	-6.486511	-115.55481	-25.64392	342.0727	-88.597694	-9.029454
1448010645966	-0.3864898681640625	9.746124267578125	-0.365386962890625	-6.807558913832049	0	-4.9865723	-114.65454	-31.193542	341.47614	-87.375656	-9.458786
1448010646006	-0.9970550537109375	10.407867431640625	-1.9852294921875	-7.08160772739771	0	-0.036621094	-112.55493	-34.344482	340.15112	-85.31349	-10.763529
1448010646046	-0.1805877685546875	10.5804443359375	-0.748626708984375	-6.6999571401916125	0	4.763794	-112.405396	-37.643433	338.0585	-84.110245	-12.497064
1448010646087	2.2747650146484375	10.929168701171875	-1.005706787109375	-6.314003984324706	0	5.963135	-111.354065	-38.093567	336.85928	-83.78039	-13.090299
1448010646127	-2.9953765869140625	12.504974365234375	0.736724853515625	-6.605612241223666	0	7.4630737	-112.85553	-38.394165	334.28336	-84.02782	-13.693272
1448010646167	-3.2369842529296875	11.402862548828125	3.96331787109375	-6.323900448360182	0	5.213928	-113.60474	-32.99408	333.35257	-86.22485	-12.602949
1448010646208	-4.0463104248046875	11.538543701171875	0.12139892578125	-7.047318897584293	0	3.413391	-116.45508	-23.843384	331.8825	-91.09636	-11.18479
1448010646248	-3.3464813232421875	13.152435302734375	-0.26422119140625	-6.717630465011682	0	2.0629883	-118.855286	-15.144348	329.87003	-96.159546	-9.966626
1448010646288	-1.0720367431640625	11.71588134765625	-2.9278564453125	-7.028833242480627	0	-1.53656	-119.30542	-7.344055	326.6552	-100.74483	-7.2060323
1448010646330	-0.3507843017578125	8.2191162109375	1.017608642578125	-6.825670522176377	0	-6.6360474	-119.00482	-4.194641	326.15735	-102.794334	-5.832192
1448010646370	-0.6554718017578125	5.39599609375	1.8804931640625	-7.233466218780164	0	-9.336853	-117.65442	9.005737	330.48196	-109.187645	-4.6034145
1448010646411	-1.1160736083984375	5.409088134765625	-0.57843017578125	-7.879274300854695	0	-10.68573	-114.35547	25.656128	335.60992	-114.84512	-6.042143
1448010646451	-2.3264923095703125	3.883270263671875	-6.14373779296875	NaN	0	-9.635925	-112.405396	36.006165	340.98004	-119.79018	-8.253342
1448010646491	-2.0741729736328125	4.752105712890625	-4.3941650390625	NaN	0	-9.635925	-111.50513	37.05597	343.65723	-120.11786	-9.11787
1448010646532	-1.9456329345703125	6.0672607421875	-6.57220458984375	NaN	0	-9.786987	-114.05487	33.605957	344.55402	-118.20945	-9.408893
1448010646572	-1.3945770263671875	12.84893798828125	-6.354400634765625	-7.548290825606813	0	-9.185791	-116.004944	25.656128	346.38303	-114.085846	-9.870583
1448010646612	-1.1589202880859375	15.22930908203125	-7.949249267578125	-7.332506322232889	0	-9.486389	-117.80548	23.106384	347.15613	-111.24796	-10.1803875
1448010646652	-1.8349456787109375	5.11273193359375	-7.477935791015625	NaN	0	-13.685608	-115.40527	28.205872	347.5048	-113.22333	-8.627743
1448010646693	-4.2415008544921875	11.37548828125	0.93548583984375	-6.96591816871344	0	-13.685608	-114.95514	29.556274	348.3056	-113.7937	-8.522138
1448010646733	-3.1846160888671875	11.8087158203125	-2.2994384765625	-7.291712079061412	0	-11.436462	-115.85541	26.855469	346.51752	-112.46929	-9.161571
1448010646773	-0.6864166259765625	6.296966552734375	0.637939453125	-7.306902142281428	0	-12.336731	-115.55481	21.156311	343.5075	-109.32212	-7.6143517
1448010646813	-1.3624420166015625	8.244110107421875	3.1754150390625	-6.635309548167684	0	-12.936401	-115.55481	9.605408	338.9117	-104.076996	-6.881662
1448010646853	-3.6737823486328125	12.364532470703125	-1.772186279296875	-7.176283699101296	0	-7.98645	-115.85541	-1.3442993	333.5744	-100.231026	-7.86481
1448010646894	-0.5388336181640625	7.60736083984375	1.31396484375	-6.911346631911174	0	-6.6360474	-114.505005	-8.99353	331.2619	-96.72421	-7.8679924
1448010646936	-0.0675201416015625	7.394317626953125	1.68768310546875	-6.804187538191943	0	-4.685974	-112.405396	-16.793823	329.47037	-94.83671	-7.69332
1448010646980	1.1512298583984375	10.34716796875	-1.260406494140625	-6.606913869610362	0	-2.886963	-112.70447	-21.89331	327.23615	-90.51503	-8.286414
1448010647021	0.1836090087890625	9.374786376953125	-0.529632568359375	-6.801810021085863	0	-1.3870239	-111.05499	-26.994324	325.70135	-88.338326	-8.942836
1448010647061	-0.2055816650390625	10.0091552734375	-1.494873046875	-6.924118332838274	0	3.263855	-111.354065	-30.743408	324.47812	-86.23298	-10.083814
1448010647102	-0.4924163818359375	10.9708251953125	-1.531768798828125	-6.815506552003358	0	8.363342	-109.70459	-34.344482	322.95993	-84.824486	-11.8387375
1448010647142	2.2331085205078125	10.636383056640625	-0.96881103515625	-6.356863699644248	0	12.263489	-108.20465	-36.894226	320.9703	-84.21096	-13.151556
1448010647182	-1.2220001220703125	10.683990478515625	0.17852783203125	-6.200991592628965	0	11.064148	-108.35419	-36.44409	319.50552	-84.27466	-13.340716
1448010647223	-4.0094146728515625	13.599945068359375	0.809326171875	-6.58171913904051	0	8.813477	-109.55505	-31.49414	319.21072	-85.395775	-13.009026
1448010647263	-3.3476715087890625	10.58758544921875	2.231597900390625	-6.7290178579897635	0	7.0129395	-111.50513	-23.843384	318.39603	-88.5105	-11.391356
1448010647303	-3.8927764892578125	12.952484130859375	-0.727203369140625	-6.919992255178938	0	6.713867	-113.30414	-15.144348	315.52747	-93.114456	-10.334617
1448010647344	-1.5302581787109375	11.543304443359375	-2.13043212890625	-6.999000645437068	0	2.0629883	-114.65454	-8.39386	313.1742	-100.11696	-7.4370975
1448010647384	-1.5873870849609375	10.745880126953125	-0.412994384765625	-6.849321072129555	0	0.7141113	-113.30414	-4.6432495	312.68716	-102.03773	-6.2529254
1448010647424	-0.6435699462890625	6.615936279296875	0.672454833984375	-7.22884493657908	0	-4.23584	-112.405396	9.455872	314.34634	-106.10457	-4.9351816
1448010647465	-0.9768218994140625	5.30316162109375	0.67840576171875	-7.569471151811224	0	-4.9865723	-110.45532	22.355652	320.48016	-114.036705	-5.616324
1448010647505	-2.7835235595703125	5.071075439453125	-9.884490966796875	NaN	0	-4.9865723	-108.80432	33.155823	325.52548	-119.61977	-6.5459332
1448010647545	-2.0051422119140625	4.48193359375	-2.621978759765625	NaN	0	-5.735779	-107.00531	34.506226	328.33826	-120.62553	-8.561264
1448010647586	-1.8087615966796875	4.799713134765625	-5.48675537109375	NaN	0	-3.7857056	-108.50525	31.20575	329.58316	-119.3475	-9.053207
1448010647626	-1.2398529052734375	6.456451416015625	-6.344879150390625	NaN	0	-3.9367676	-109.854126	27.9068	330.05988	-117.775665	-9.211901
1448010647667	-0.7006988525390625	9.489044189453125	-5.704559326171875	-8.050528813873939	0	-3.036499	-109.854126	24.606323	330.46054	-115.695885	-9.370117
1448010647707	-2.6014251708984375	17.560882568359375	-3.728851318359375	-6.4553903558414065	0	-3.036499	-111.05499	19.056702	331.85858	-112.060905	-9.869211
1448010647747	-2.0872650146484375	3.621429443359375	-5.5224609375	NaN	0	-6.336975	-109.10492	25.656128	333.09473	-114.64896	-7.8425503
1448010647788	-2.9263458251953125	7.832305908203125	-1.515106201171875	-7.965172868171011	0	-4.685974	-109.70459	24.905396	332.8038	-114.49048	-8.113779
1448010647828	-6.2862396240234375	15.787506103515625	-1.62579345703125	-7.000272680804867	0	-2.886963	-109.40552	22.05658	330.68454	-112.63047	-9.607392
1448010647869	-0.0032501220703125	6.50286865234375	2.90167236328125	-6.740447542349747	0	-3.1860352	-109.254456	12.156677	323.7621	-107.45939	-6.584852
1448010647910	-2.7787628173828125	7.175323486328125	2.333953857421875	-7.2122764800111785	0	-0.33569336	-110.30426	-2.6931763	318.5534	-102.71553	-5.9953656
1448010647950	-2.2848358154296875	11.638519287109375	-1.407989501953125	-6.98778926323058	0	5.064392	-109.10492	-9.744263	312.89484	-99.01283	-7.314768
1448010647990	-0.4459991455078125	10.83990478515625	0.822418212890625	-6.4575219399155435	0	6.114197	-108.35419	-13.194275	311.43433	-97.23144	-7.6939135
1448010648031	-0.0199127197265625	6.870635986328125	0.48797607421875	-7.09759661483779	0	7.4630737	-107.15485	-16.194153	308.58002	-93.9501	-7.6678944
1448010648071	0.3050079345703125	9.634246826171875	-1.92095947265625	-6.974940541645952	0	10.614014	-104.304504	-24.594116	306.487	-90.14266	-8.251414
1448010648111	-0.2246246337890625	9.474761962890625	-0.52606201171875	-6.852945430253765	0	13.313293	-103.704834	-28.044128	305.4805	-88.172554	-8.955292
1448010648151	-0.4590911865234375	10.75421142578125	-2.10186767578125	-6.944214183329479	0	17.21344	-102.204895	-31.193542	304.11212	-86.34112	-10.317811
1448010648192	0.5347137451171875	11.952728271484375	-1.122344970703125	-6.435384040453884	0	23.66333	-101.605225	-32.09381	301.46783	-85.05225	-12.883554
1448010648232	2.6699066162109375	11.22076416015625	-0.839080810546875	-6.1939015672740805	0	25.013733	-100.55542	-32.543945	299.7924	-85.28042	-13.358411
1448010648272	-1.3850555419921875	10.926788330078125	-0.189239501953125	-6.748415361013528	0	24.864197	-102.65503	-29.693604	299.05243	-86.19067	-13.434673
1448010648312	-3.6940155029296875	10.393585205078125	3.02069091796875	-6.688866749685408	0	23.814392	-104.15497	-23.843384	298.56314	-88.51829	-12.783824
1448010648353	-4.9127655029296875	10.952972412109375	0.503448486328125	-7.2485430429508	0	22.314453	-108.20465	-14.84375	297.36087	-93.21578	-11.591226
1448010648393	-3.2774505615234375	13.502349853515625	-0.382049560546875	-6.669268374008684	0	21.113586	-108.35419	-10.194397	296.49185	-95.64309	-10.846273
1448010648433	-1.4933624267578125	12.64422607421875	-2.800506591796875	-6.916901563196591	0	15.263367	-109.70459	2.256775	292.33447	-102.497055	-6.4606137
1448010648474	-0.3067474365234375	8.694000244140625	1.322296142578125	-6.6905850850492845	0	11.663818	-108.80432	9.605408	292.7562	-106.16836	-4.4918637
1448010648514	0.2252655029296875	6.073211669921875	-0.05712890625	-7.308330945914439	0	9.114075	-106.85425	18.90564	295.16183	-110.684425	-3.936443
1448010648555	-0.5947723388671875	5.235321044921875	0.293975830078125	-7.585221028250062	0	9.263611	-105.35431	29.406738	299.95615	-115.777145	-5.4357743
1448010648595	-2.9668121337890625	4.285552978515625	-7.575531005859375	NaN	0	11.064148	-102.35443	36.605835	305.4466	-120.62225	-8.231116
1448010648635	-2.6787872314453125	3.70831298828125	-3.421783447265625	NaN	0	11.514282	-102.50549	36.906433	308.95795	-121.15969	-9.73589
1448010648676	-1.7849578857421875	4.973480224609375	-5.360595703125	NaN	0	11.514282	-103.85437	31.80542	310.69534	-118.81394	-10.382272
1448010648716	-0.9708709716796875	9.309326171875	-6.6317138671875	-8.500176893572448	0	13.163757	-106.40411	25.205994	312.75873	-114.580765	-11.252043
1448010648757	-2.0015716552734375	18.30950927734375	-4.0037841796875	-6.298872324939859	0	11.36322	-105.955505	25.656128	314.40878	-112.08173	-11.368017
1448010648797	-2.4931182861328125	6.00299072265625	-9.74761962890625	NaN	0	7.6141357	-104.45557	31.80542	315.61102	-114.74737	-9.518032
1448010648837	-3.7237701416015625	10.9327392578125	-0.086883544921875	-7.137876415345893	0	8.363342	-101.45416	32.106018	317.37347	-115.86285	-9.566582
1448010648877	-4.1712799072265625	11.440948486328125	-1.628173828125	-7.4314169015891505	0	8.66394	-101.75476	30.60608	315.64868	-114.61006	-10.314103
1448010648918	-2.7573394775390625	8.3905029296875	-0.382049560546875	-7.515069094338554	0	9.263611	-101.605225	29.556274	314.07913	-113.608665	-10.319258
1448010648958	-1.6837921142578125	9.56402587890625	3.1849365234375	-6.480164928021901	0	8.514404	-102.204895	12.156677	307.6594	-106.655365	-8.881168
1448010648999	-1.9670562744140625	9.21173095703125	-3.0230712890625	-7.751945918760365	0	10.014343	-102.204895	6.3064575	302.7183	-102.428955	-9.19956
1448010649039	-1.2362823486328125	7.41693115234375	-0.48321533203125	-7.419670283464615	0	10.014343	-99.80469	0.6057739	302.0391	-99.04306	-9.252589
1448010649080	-0.2960357666015625	7.603790283203125	1.11639404296875	-6.904161618299138	0	10.614014	-100.105286	-2.5436401	299.51193	-95.482056	-9.200184
1448010649121	-0.0187225341796875	10.41143798828125	-0.836700439453125	-6.721293003492956	0	11.064148	-98.30475	-7.194519	299.21332	-92.4837	-9.737934
1448010649161	-0.2841339111328125	9.181976318359375	-0.24755859375	-7.031190819687291	0	11.9644165	-98.00415	-10.343933	298.59808	-90.260124	-10.407677
1448010649201	-0.6780853271484375	10.28765869140625	-2.207794189453125	-7.085978899073837	0	13.613892	-94.4046	-15.44342	297.60294	-88.16739	-11.255388
1448010649241	-0.5031280517578125	11.08270263671875	-1.5281982421875	-6.798049461489231	0	15.263367	-93.50433	-17.094421	296.40643	-86.51501	-12.653294
1448010649282	2.3521270751953125	11.18267822265625	-0.953338623046875	-6.25956367726454	0	17.362976	-92.30499	-18.743896	294.79196	-85.587715	-14.065141
1448010649322	0.2752532958984375	11.471893310546875	-0.2332763671875	-6.41339056949651	0	17.21344	-92.30499	-18.59436	293.30322	-85.75535	-14.456258
1448010649362	-3.0703582763671875	13.10601806640625	1.217559814453125	-6.452018117783948	0	15.713501	-91.55426	-18.293762	293.19794	-86.38003	-14.226719
1448010649403	-4.1403350830078125	10.291229248046875	2.350616455078125	-6.890864994873987	0	9.863281	-90.95459	-9.744263	291.92737	-91.51339	-12.791941
1448010649443	-4.8865814208984375	13.1226806640625	-1.072357177734375	-7.130083221530325	0	8.813477	-92.004395	-7.043457	290.2268	-93.989975	-11.625048
1448010649484	-2.6228485107421875	11.63494873046875	-1.805511474609375	-7.122090967585098	0	2.0629883	-89.305115	2.105713	287.31332	-101.28132	-7.8109407
1448010649524	-1.0744171142578125	9.510467529296875	0.867645263671875	-6.756403993394697	0	-2.2857666	-86.30524	4.6554565	286.91638	-105.30463	-5.1084127
1448010649566	0.9274749755859375	6.404083251953125	1.2711181640625	-6.8735680547935445	0	-4.9865723	-85.10437	14.1067505	289.49023	-109.3633	-4.0392065
1448010649606	-0.5364532470703125	5.0008544921875	1.772186279296875	-7.309283935819484	0	-5.2856445	-82.55463	23.405457	294.51425	-114.61713	-5.2058973
1448010649646	-2.1562957763671875	5.775665283203125	-2.291107177734375	-8.65409736264876	0	-4.685974	-80.75409	28.805542	297.38754	-117.72952	-6.580197
1448010649687	-2.1705780029296875	3.73687744140625	-3.236114501953125	NaN	0	-5.886841	-78.504944	30.456543	305.17682	-121.8307	-9.06367
1448010649727	-1.3707733154296875	4.204620361328125	-5.254669189453125	NaN	0	-7.38678	-78.80554	27.9068	307.8787	-120.2188	-9.152614
1448010649767	-0.6780853271484375	6.908721923828125	-6.27227783203125	NaN	0	-9.786987	-80.75409	16.656494	310.27548	-116.23801	-9.220543
1448010649808	-1.3683929443359375	17.379974365234375	-5.77716064453125	-6.607471872467876	0	-9.185791	-80.15442	16.505432	315.09045	-112.36574	-9.750188
1448010649848	-4.0344085693359375	6.984893798828125	-9.296539306640625	NaN	0	-12.185669	-78.65448	18.606567	318.21906	-114.65299	-8.407156
1448010649888	-2.6383209228515625	10.7708740234375	-1.0521240234375	-7.145692433557971	0	-12.635803	-77.604675	17.855835	319.26608	-115.240906	-8.020283
1448010649928	-3.9677581787109375	14.271209716796875	-1.66387939453125	-6.867285089420548	0	-9.336853	-78.504944	14.555359	319.9287	-114.47891	-9.330337
1448010649968	-0.6768951416015625	6.62664794921875	0.155914306640625	-7.335635185548403	0	-9.936523	-78.95508	9.156799	317.92136	-111.76363	-8.045391
1448010650009	0.2014617919921875	6.177947998046875	-0.91168212890625	-7.46828272872717	0	-10.536194	-78.95508	5.706787	316.87048	-109.65861	-7.0201845
1448010650049	-4.4033660888671875	11.500457763671875	1.10211181640625	-6.94317486718948	0	-4.0863037	-78.95508	-8.244324	310.49783	-102.53193	-7.7613783
1448010650089	0.0265045166015625	8.43096923828125	-0.2237548828125	-6.937154256991375	0	-2.1362305	-76.70441	-13.943481	309.88953	-99.12675	-8.395545
1448010650130	-0.2591400146484375	6.646881103515625	0.2713623046875	-7.226076139704442	0	-1.0864258	-76.25427	-20.0943	309.70587	-95.40362	-8.055654
1448010650170	0.9762725830078125	9.124847412109375	-0.332061767578125	-6.681050731865027	0	0.41351318	-74.00513	-24.143982	309.9292	-93.78064	-8.241236
1448010650210	-0.4674224853515625	9.884185791015625	-1.9566650390625	-7.075281954330187	0	1.763916	-73.55499	-27.74353	311.66602	-90.04757	-9.3774
1448010650251	-0.4329071044921875	9.137939453125	-0.5189208984375	-6.945461861042827	0	4.463196	-71.45538	-31.044006	311.7293	-87.69439	-10.512741
1448010650293	-0.5935821533203125	11.06365966796875	-1.58294677734375	-6.825470895565794	0	8.213806	-71.30432	-34.944153	311.60736	-86.11153	-12.317309
1448010650333	1.0941009521484375	11.483795166015625	-0.696258544921875	-6.359624866170023	0	11.064148	-70.25452	-36.743164	309.95453	-85.36571	-13.902308
1448010650374	3.0626678466796875	11.3040771484375	-1.08544921875	-6.162248785261334	0	13.313293	-70.555115	-37.493896	309.90466	-85.26546	-14.402887
1448010650414	-3.4869232177734375	13.323822021484375	1.2901611328125	-6.419534345909842	0	12.564087	-71.154785	-35.993958	311.0034	-86.05617	-14.325102
1448010650454	-3.1048736572265625	10.803009033203125	3.1944580078125	-6.5062070864533315	0	10.614014	-73.55499	-32.243347	311.73932	-88.79195	-12.850634
1448010650495	-6.4504852294921875	11.1231689453125	0.022613525390625	-7.6397365430163955	0	9.114075	-77.30408	-26.54419	312.28036	-93.71799	-11.860649
1448010650535	-3.2917327880859375	12.232421875	-0.755767822265625	-6.945669860229293	0	8.963013	-79.85535	-19.494629	311.08698	-98.7259	-9.939191
1448010650575	-0.2055816650390625	12.155059814453125	-5.37249755859375	-7.242037543981368	0	5.064392	-81.65436	-13.493347	309.89102	-103.662865	-6.360089
1448010650616	-0.3793487548828125	8.291717529296875	2.35418701171875	-6.60245334509595	0	3.8635254	-82.255554	-11.09314	310.99252	-105.349846	-5.1568894
1448010650656	-0.0068206787109375	5.102020263671875	2.69219970703125	-7.016008791672956	0	-0.33569336	-82.70416	-3.7445068	317.50732	-112.176125	-4.2523775
1448010650696	-3.2179412841796875	4.75567626953125	-4.185882568359375	NaN	0	-1.3870239	-81.954956	6.906128	323.98013	-118.766685	-6.787026
1448010650737	-3.1941375732421875	3.84161376953125	-11.45196533203125	NaN	0	-2.5863647	-82.10449	15.756226	327.45593	-121.40571	-8.098091
1448010650777	-1.7897186279296875	3.4869384765625	-3.2373046875	NaN	0	-4.23584	-83.75549	14.706421	334.1371	-121.98358	-9.604664
1448010650817	-1.3802947998046875	6.224365234375	-6.678131103515625	NaN	0	-4.837036	-83.454895	9.605408	338.3895	-116.96567	-10.050566
1448010650858	-2.1610565185546875	17.489471435546875	-7.770721435546875	-7.057474051367359	0	-4.9865723	-83.60443	4.9560547	341.56097	-112.76612	-10.884077
1448010650898	-2.6466522216796875	11.1993408203125	-9.32867431640625	NaN	0	-7.38678	-82.70416	7.6568604	343.00333	-112.68853	-10.816012
1448010650939	-3.3060150146484375	6.294586181640625	-8.170623779296875	NaN	0	-9.036255	-82.70416	9.605408	345.87375	-115.02376	-9.6025715
1448010650980	-4.7758941650390625	13.47735595703125	1.27349853515625	-6.648283941219872	0	-7.836914	-82.55463	8.706665	348.58707	-114.61279	-10.218884
1448010651020	-2.0979766845703125	7.003936767578125	-0.229705810546875	-7.644135139600891	0	-6.9366455	-81.355286	6.756592	348.1383	-113.17047	-9.778562
1448010651060	-0.2710418701171875	6.30767822265625	-1.265167236328125	-7.6222307280565085	0	-6.185913	-80.00488	0.0061035156	346.61142	-109.60274	-8.868593
1448010651100	-1.9349212646484375	9.9805908203125	4.985687255859375	-6.196702936159614	0	-2.5863647	-80.00488	-9.294128	342.00345	-103.74764	-9.02101
1448010651141	-1.1125030517578125	10.050811767578125	-3.371795654296875	-7.447254103035453	0	-0.78582764	-77.45514	-14.694214	339.8468	-101.84091	-9.416228
1448010651181	-1.3350677490234375	7.07177734375	-1.081878662109375	-7.6490942798182	0	-0.78582764	-76.25427	-16.94336	339.94476	-98.481255	-9.348774
1448010651221	-0.7256927490234375	6.768280029296875	1.048553466796875	-7.1436804091992725	0	-0.036621094	-74.15466	-22.193909	338.96457	-94.74397	-9.087891
1448010651262	0.8929595947265625	9.815155029296875	0.320159912109375	-6.485715398552244	0	1.6143799	-72.05505	-25.944519	338.16235	-91.67252	-9.715805
1448010651302	-0.4519500732421875	9.612823486328125	-1.398468017578125	-7.020490634682871	0	2.6641846	-68.455505	-31.044006	338.6397	-88.03409	-10.766119
1448010651342	-0.0865631103515625	11.21124267578125	-1.39251708984375	-6.686958598238262	0	4.763794	-67.85431	-32.99408	338.49445	-86.16562	-11.839981
1448010651382	0.4228363037109375	11.31121826171875	-0.8426513671875	-6.506387401053958	0	7.913208	-66.50543	-34.344482	337.36038	-85.096214	-13.270223
1448010651423	0.8322601318359375	11.1517333984375	-0.22613525390625	-6.377626643969482	0	9.263611	-64.85443	-34.944153	336.28076	-85.02529	-13.97535
1448010651463	-1.6516571044921875	11.778961181640625	0.053558349609375	-6.615853625441562	0	9.413147	-65.4541	-32.99408	335.8887	-86.0888	-14.016894
1448010651503	-4.6711578369140625	10.948211669921875	0.380859375	-7.226306759298894	0	7.913208	-68.30444	-28.643799	336.2885	-91.47294	-12.340989
1448010651543	-2.7228240966796875	14.44854736328125	0.39752197265625	-6.324754908779282	0	7.6141357	-70.10498	-23.544312	335.44803	-95.91806	-10.956814
1448010651584	-2.4157562255859375	12.750152587890625	-1.19732666015625	-6.783841375473648	0	7.1640015	-72.05505	-17.993164	333.59393	-100.588646	-8.127975
1448010651624	-1.9408721923828125	12.38714599609375	-3.75146484375	-7.219167110056583	0	5.3634644	-72.354126	-11.993408	333.337	-102.996124	-6.5735517
1448010651665	-0.9268341064453125	7.146759033203125	1.879302978515625	-6.960685752297965	0	3.8635254	-73.55499	-6.4437866	336.00388	-106.71703	-5.3913417
1448010651705	-0.7447357177734375	5.03656005859375	-0.409423828125	-7.83621919601938	0	3.7139893	-73.40546	-2.9937744	339.1365	-111.42233	-5.1925545
1448010651745	-1.4552764892578125	5.53167724609375	1.365142822265625	-7.473888363491628	0	2.3635864	-73.70453	4.055786	344.53064	-116.14223	-7.029835
1448010651786	-2.0075225830078125	3.147735595703125	-4.462005615234375	NaN	0	1.763916	-73.254395	12.756348	350.47192	-120.612206	-9.407106
1448010651826	-1.9587249755859375	4.24151611328125	-4.3465576171875	NaN	0	1.1642456	-72.354126	11.405945	355.6243	-118.90809	-10.200315
1448010651867	-1.4576568603515625	7.84539794921875	-5.361785888671875	-8.793705533535052	0	0.5630493	-72.20459	5.406189	357.25882	-114.85789	-10.321272
1448010651907	-1.1934356689453125	18.127410888671875	-6.09613037109375	-6.514511779943797	0	-0.18615723	-71.90552	2.256775	359.16736	-111.80535	-10.35454
1448010651947	-3.9570465087890625	9.039154052734375	-9.013275146484375	NaN	0	-1.2359619	-72.654724	6.4559937	0.88497925	-113.842316	-9.736173
1448010651988	-0.2877044677734375	5.844696044921875	-3.062347412109375	-8.227155741711957	0	-1.3870239	-72.20459	7.8063965	2.1748352	-115.06407	-9.002992
1448010652029	-5.3840789794921875	14.987701416015625	-1.179473876953125	-6.904161618299138	0	1.4633179	-72.95532	7.055664	2.1765747	-114.6752	-10.166693
1448010652069	-1.4612274169921875	8.50238037109375	0.336822509765625	-7.090357105141885	0	3.1143188	-72.354126	4.3563843	0.5627136	-113.105644	-9.939791
1448010652109	0.2514495849609375	6.506439208984375	1.33538818359375	-6.961731465684387	0	1.6143799	-71.754456	1.8066406	359.55646	-111.222176	-8.853619
1448010652150	0.5704193115234375	6.5528564453125	1.50439453125	-6.869310384029872	0	3.413391	-70.85419	-5.093384	355.6785	-106.18355	-7.1860547
1448010652190	-1.1458282470703125	7.503814697265625	-0.474884033203125	-7.381089246160267	0	6.713867	-69.20471	-11.843872	350.22485	-100.07932	-8.274615
1448010652231	-0.1901092529296875	7.070587158203125	1.1806640625	-6.96738497331156	0	7.1640015	-67.55524	-16.044617	350.2046	-96.49769	-8.211659
1448010652272	0.8620147705078125	7.814453125	2.01141357421875	-6.53736744942692	0	8.813477	-65.304565	-19.343567	348.20328	-92.960625	-8.264665
1448010652312	-0.2020111083984375	9.91156005859375	-1.553192138671875	-6.9506663853087485	0	9.863281	-65.4541	-22.044373	347.4599	-89.435005	-9.539202
1448010652353	-0.0413360595703125	9.652099609375	-1.437744140625	-6.947750684422195	0	11.064148	-62.454224	-23.994446	346.10406	-87.24664	-10.402361
1448010652393	-0.3186492919921875	11.32550048828125	-1.119964599609375	-6.662258002589462	0	13.313293	-62.00409	-26.243591	344.70456	-85.5512	-11.835539
1448010652434	1.5689849853515625	11.000579833984375	-0.980712890625	-6.402359713429303	0	17.663574	-60.20508	-26.394653	342.57016	-84.9723	-13.162414
1448010652474	1.1678924560546875	11.255279541015625	-0.5284423828125	-6.35772632671798	0	17.21344	-61.105347	-25.343323	340.77173	-85.51966	-13.654674
1448010652515	-2.7275848388671875	13.161956787109375	2.034027099609375	-6.275537971678837	0	18.113708	-60.354614	-24.143982	340.4014	-86.23009	-13.612088
1448010652555	-3.1512908935546875	11.229095458984375	0.382049560546875	-6.898017161919475	0	15.863037	-63.05542	-16.343689	339.95224	-91.27609	-11.969797
1448010652597	-5.0496368408203125	12.25384521484375	0.5093994140625	-7.029261744027937	0	15.863037	-63.05542	-16.343689	339.72543	-93.741394	-11.718958
1448010652637	-3.2465057373046875	11.76348876953125	-1.619842529296875	-7.180359245055836	0	14.663696	-65.00549	-7.6446533	336.9593	-100.86285	-9.203237
1448010652677	-1.4647979736328125	10.947021484375	-3.6895751953125	-7.39980787864226	0	11.9644165	-65.60516	-2.394104	335.91257	-105.10119	-6.1664357
1448010652718	-0.0294342041015625	6.947998046875	0.809326171875	-7.026691725497325	0	9.713745	-66.204834	1.2054443	337.01117	-106.544365	-5.4170494
1448010652759	0.6192169189453125	5.957763671875	1.874542236328125	-6.899449706817957	0	7.1640015	-65.904236	6.60553	340.8373	-109.85628	-4.6750264
1448010652799	-1.0946502685546875	5.2626953125	0.653411865234375	-7.610818383085492	0	5.963135	-65.7547	13.356018	346.69214	-114.4456	-5.8262095
1448010652841	-2.4657440185546875	3.701171875	-3.524139404296875	NaN	0	3.7139893	-63.954163	17.4057	355.49036	-119.62903	-8.372936
1448010652882	-2.0932159423828125	4.825897216796875	-4.2608642578125	NaN	0	2.8137207	-65.00549	15.756226	358.4006	-118.45751	-8.347333
1448010652922	-1.1803436279296875	10.293609619140625	-6.04376220703125	-8.054600061592556	0	1.4633179	-64.704895	11.405945	359.67273	-115.36338	-8.198701
1448010652963	-1.5052642822265625	14.8746337890625	-5.514129638671875	-7.003879916194972	0	1.9134521	-64.85443	10.35614	1.4549255	-113.61124	-8.420566
1448010653003	-1.2636566162109375	12.09674072265625	-10.14752197265625	-8.978613204338943	0	-0.33569336	-62.605286	13.505554	3.7421875	-113.287796	-8.337482
1448010653043	-1.4862213134765625	8.90228271484375	-0.827178955078125	-7.239718147189267	0	-2.4368286	-62.605286	14.555359	5.561096	-115.79708	-7.829261
1448010653084	-5.8958587646484375	17.3597412109375	-2.019744873046875	-6.733468441924071	0	-0.78582764	-62.605286	12.156677	4.8240356	-114.134674	-8.631661
1448010653124	-0.2055816650390625	7.37646484375	0.26898193359375	-7.078988386829113	0	-1.2359619	-60.655212	11.405945	4.06958	-113.331184	-8.4767475
1448010653164	0.0586395263671875	5.8863525390625	1.422271728515625	-7.092329601910429	0	-2.5863647	-60.655212	5.406189	1.8188171	-109.67215	-6.2719555
1448010653204	-4.0272674560546875	9.72113037109375	0.89739990234375	-7.239254519278168	0	0.41351318	-60.655212	-3.7445068	354.90616	-102.20488	-6.003478
1448010653245	-0.6828460693359375	9.1807861328125	-0.622467041015625	-7.000272680804867	0	0.86364746	-60.354614	-5.543518	353.52728	-100.5927	-6.5640545
1448010653285	0.0265045166015625	7.356231689453125	0.460601806640625	-7.006003989738021	0	0.86364746	-59.30481	-6.893921	352.61612	-97.20141	-6.6806707
1448010653325	1.6368255615234375	9.741363525390625	-1.22589111328125	-6.620332909244296	0	1.3137817	-56.904602	-13.043213	350.55615	-93.7481	-6.496698
1448010653366	0.6156463623046875	9.517608642578125	-1.15924072265625	-6.810934083675791	0	2.5131226	-54.655457	-16.793823	349.2276	-90.218475	-7.379058
1448010653406	0.2157440185546875	9.1807861328125	-1.55438232421875	-7.006216485702639	0	2.9632568	-53.755188	-18.144226	348.2321	-88.07296	-8.204036
1448010653447	-0.3995819091796875	11.07318115234375	-1.129486083984375	-6.717245187230885	0	5.5130005	-52.55432	-21.443176	347.03625	-86.53123	-9.711171
1448010653487	0.5704193115234375	11.20172119140625	-1.30206298828125	-6.5708500846560405	0	5.963135	-52.705383	-21.594238	345.28015	-85.86589	-11.179907
1448010653527	1.5785064697265625	11.41119384765625	-0.656982421875	-6.294803038968823	0	7.1640015	-51.654053	-22.494507	343.50555	-86.11689	-11.753947
1448010653567	-1.4802703857421875	12.143157958984375	-0.110687255859375	-6.558184953029738	0	7.1640015	-51.805115	-22.193909	342.81418	-87.28669	-11.836442
1448010653608	-2.5490570068359375	11.36358642578125	1.122344970703125	-6.654319176588412	0	7.1640015	-53.904724	-17.393494	342.40503	-90.79508	-11.384302
1448010653648	-1.1351165771484375	13.895111083984375	0.2666015625	-6.19736239777208	0	7.763672	-56.60553	-13.943481	341.36954	-96.0249	-11.235615
1448010653689	-1.5671539306640625	12.681121826171875	-1.062835693359375	-6.636247937192394	0	7.1640015	-57.354736	-11.244202	340.02286	-100.71108	-9.666976
1448010653729	-2.9810943603515625	11.31121826171875	-3.912139892578125	-7.704699905136055	0	5.963135	-59.155273	-7.194519	339.3276	-105.29028	-7.1972713
1448010653770	-0.9268341064453125	7.437164306640625	0.8331298828125	-7.096718068437701	0	3.263855	-59.30481	-4.194641	342.89392	-108.42156	-6.2528195
1448010653810	-0.5697784423828125	5.34124755859375	1.837646484375	-7.235779975069056	0	0.5630493	-61.55548	3.1555176	347.79233	-111.88024	-6.0491934
1448010653851	-3.2869720458984375	5.318634033203125	-5.666473388671875	NaN	0	-1.6860962	-62.75482	9.455872	357.11124	-118.818054	-8.211324
1448010653891	-2.1170196533203125	3.6678466796875	-3.14447021484375	NaN	0	-2.1362305	-62.00409	11.856079	2.2522278	-120.47179	-9.394076
1448010653931	-1.6623687744140625	4.902069091796875	-4.742889404296875	NaN	0	-3.3355713	-62.15515	11.405945	3.7550354	-120.07244	-9.444952
1448010653972	-0.8351898193359375	7.97869873046875	-6.008056640625	-8.741023972441283	0	-4.536438	-63.505554	8.555603	5.790222	-117.713425	-9.566688
1448010654012	-3.0227508544921875	11.745635986328125	-7.144683837890625	-8.239638595883042	0	-4.23584	-63.954163	4.9560547	7.567566	-114.24961	-10.3228445
1448010654052	-3.7142486572265625	10.27337646484375	-9.20965576171875	NaN	0	-6.185913	-65.4541	4.8065186	10.003113	-112.872116	-10.660877
1448010654093	-1.5612030029296875	4.699737548828125	-4.497711181640625	NaN	0	-7.0861816	-66.0553	7.206726	12.163361	-115.642	-9.386006
1448010654133	-4.1486663818359375	13.759429931640625	-0.55462646484375	-6.79725836353515	0	-4.536438	-66.804504	6.906128	12.356903	-114.72888	-10.390017
1448010654174	-2.3764801025390625	9.49737548828125	0.208282470703125	-7.099354562946811	0	-3.4866333	-68.90411	3.3065796	10.603455	-113.0335	-10.188167
1448010654215	0.9619903564453125	6.86944580078125	-0.3856201171875	-7.077897737011408	0	-3.7857056	-69.35425	-2.2445679	8.278412	-109.46132	-8.056492
1448010654255	0.6156463623046875	7.61688232421875	2.131622314453125	-6.587259850066078	0	-3.4866333	-68.00537	-6.4437866	6.228882	-106.78647	-7.257608
1448010654295	-2.9334869384765625	10.124603271484375	0.90692138671875	-6.9608948642337225	0	1.6143799	-67.55524	-12.893677	1.3954163	-102.49107	-7.504909
1448010654336	-0.5912017822265625	7.45025634765625	-0.505828857421875	-7.2860394060035345	0	3.263855	-66.804504	-18.743896	359.3787	-97.66484	-7.839035
1448010654376	0.3347625732421875	7.948944091796875	0.73553466796875	-6.803394823358248	0	3.7139893	-66.35437	-20.544434	357.7071	-95.92948	-7.669108
1448010654417	1.0679168701171875	9.888946533203125	-1.600799560546875	-6.747831646107629	0	4.91333	-65.60516	-25.494385	356.86804	-91.8777	-8.10931
1448010654457	0.0895843505859375	9.3331298828125	-0.665313720703125	-6.847309457877562	0	8.06427	-65.00549	-28.3432	354.8844	-89.73866	-8.737089
1448010654497	-0.2055816650390625	10.074615478515625	-2.091156005859375	-7.0177153111651975	0	9.713745	-65.15503	-29.394531	354.24008	-88.872734	-9.231723
1448010654538	1.1298065185546875	11.405242919921875	-1.819793701171875	-6.5331834763500245	0	14.663696	-64.25476	-31.944275	351.1984	-86.9374	-11.383826
1448010654578	2.1914520263671875	11.69207763671875	-1.0283203125	-6.221183796741871	0	17.21344	-65.15503	-31.944275	349.2133	-86.61153	-12.227454
1448010654619	-2.0479888916015625	13.69635009765625	1.1187744140625	-6.2334871246324735	0	18.113708	-66.804504	-30.743408	348.0617	-87.03583	-12.569816
1448010654659	-2.9334869384765625	10.950592041015625	0.3951416015625	-6.906212663091089	0	16.914368	-71.30432	-25.193787	348.31958	-89.17024	-11.763746
1448010654700	-2.8704071044921875	12.883453369140625	0.427276611328125	-6.5754511523025485	0	17.964172	-73.55499	-19.044495	348.1876	-93.72028	-11.0231085
1448010654741	-2.4609832763671875	13.51068115234375	-0.447509765625	-6.550499861743873	0	17.21344	-75.80414	-15.594482	347.00497	-98.422356	-9.960365
1448010654781	-2.0789337158203125	11.257659912109375	-4.4322509765625	-7.62795931835317	0	15.113831	-78.95508	-5.093384	345.4016	-102.95309	-7.17155
1448010654821	-0.1079864501953125	8.10247802734375	0.59271240234375	-6.953376489755129	0	13.313293	-78.35541	-2.394104	346.5998	-106.81964	-4.8795857
1448010654862	0.6715850830078125	5.26983642578125	2.762420654296875	-6.85637252350163	0	9.413147	-79.55475	6.906128	353.0711	-112.57839	-3.6444664
1448010654902	-2.8501739501953125	4.83184814453125	-3.80859375	NaN	0	8.66394	-78.95508	11.405945	356.05502	-115.30614	-4.4851637
1448010654942	-1.7790069580078125	3.849945068359375	-2.904052734375	NaN	0	9.413147	-78.504944	20.106506	3.7107239	-121.23734	-7.6970162
1448010654983	-2.3062591552734375	4.556915283203125	-4.2894287109375	NaN	0	9.263611	-80.75409	19.056702	5.8652344	-120.659935	-8.23248
1448010655023	-0.9922943115234375	5.961334228515625	-5.75335693359375	NaN	0	11.213684	-81.65436	15.306091	6.7454834	-117.74346	-8.781785
1448010655064	-1.8801727294921875	12.574005126953125	-6.73883056640625	-7.817881359504394	0	11.663818	-81.355286	12.4557495	7.296234	-115.678345	-9.295383
1448010655104	-1.1006011962890625	14.195037841796875	-8.991851806640625	-7.78111614697446	0	12.564087	-83.1543	12.156677	9.620178	-113.20433	-9.86612
1448010655144	-2.5419158935546875	5.387664794921875	-6.52935791015625	NaN	0	11.8133545	-82.55463	15.756226	10.448822	-115.431	-8.687742
1448010655184	-2.7275848388671875	11.5325927734375	-2.4755859375	-7.290765745310253	0	13.912964	-82.70416	16.20636	10.873413	-115.77717	-9.191776
1448010655225	-4.9425201416015625	14.192657470703125	0.5093994140625	-6.930732370218783	0	16.313171	-83.1543	15.455627	10.349365	-115.04681	-9.861325
1448010655265	0.8274993896484375	6.70281982421875	-0.47845458984375	-7.1510652847263625	0	16.0141	-82.10449	11.706543	6.6557007	-111.86496	-8.4841385
1448010655305	0.7894134521484375	7.03131103515625	0.163055419921875	-6.789358792069162	0	16.763306	-82.70416	8.256531	4.3013306	-109.36606	-7.1609006
1448010655346	-3.5642852783203125	11.650421142578125	-0.503448486328125	-7.052932013853216	0	22.013855	-81.20422	2.256775	355.6207	-102.26949	-7.2088614
1448010655386	-1.3541107177734375	7.02655029296875	-0.403472900390625	-7.511177016146112	0	23.06366	-80.75409	-3.5934448	354.8325	-98.94212	-7.6038175
1448010655426	-0.6388092041015625	7.57879638671875	0.315399169921875	-7.113017561584746	0	23.513794	-79.55475	-8.694458	352.7545	-95.09371	-7.1780443
1448010655466	0.6132659912109375	10.10198974609375	-2.381561279296875	-6.9197861061010855	0	25.314331	-79.40521	-10.9436035	350.30066	-91.01613	-7.922397
1448010655507	0.3383331298828125	10.000823974609375	-1.4853515625	-6.831065503141966	0	28.01361	-78.65448	-11.993408	348.88416	-89.90555	-8.385235
1448010655547	0.3871307373046875	9.367645263671875	-1.4234619140625	-6.920198418980119	0	29.963684	-76.405334	-13.943481	346.42673	-87.68904	-9.444916
1448010655587	-0.5221710205078125	11.13507080078125	-0.89263916015625	-6.688866749685408	0	33.1131	-75.505066	-14.84375	344.12906	-86.0782	-10.098031
1448010655628	2.0736236572265625	11.688507080078125	-1.03070068359375	-6.407257896974999	0	36.86371	-74.3042	-14.393616	341.28235	-85.321724	-12.182708
1448010655668	0.0395965576171875	12.083648681640625	-0.55462646484375	-6.405332769332279	0	37.763977	-74.75433	-12.14447	338.00754	-85.8628	-13.003544
1448010655708	-2.9632415771484375	13.035797119140625	1.11639404296875	-6.383706226856205	0	37.763977	-75.35553	-10.9436035	337.49536	-86.552055	-12.879884
1448010655748	-3.9380035400390625	10.217437744140625	0.722442626953125	-7.160494024976572	0	35.513306	-78.204346	-0.5935669	336.24606	-89.76751	-11.600683
1448010655789	-3.1072540283203125	12.8275146484375	-0.512969970703125	-6.7722482324202975	0	34.16443	-77.30408	7.5057983	333.66107	-97.35685	-10.100149
1448010655829	-1.1327362060546875	12.8656005859375	-2.0947265625	-6.702064959549849	0	32.513428	-78.05481	10.955811	332.22556	-99.68762	-9.00633
1448010655869	-1.0934600830078125	9.22125244140625	0.479644775390625	-6.8727565935126895	0	27.713013	-76.70441	19.656372	330.333	-106.0721	-5.188877
1448010655910	0.8632049560546875	6.665924072265625	1.34967041015625	-6.8268685626928445	0	26.063538	-75.80414	25.056458	332.99435	-110.004654	-4.2673087
1448010655951	-0.4638519287109375	5.10797119140625	1.54010009765625	-7.319790928046231	0	26.513672	-72.654724	30.906677	337.21384	-114.97626	-5.4752307
1448010655999	-1.9920501708984375	4.0487060546875	-3.646728515625	NaN	0	28.613281	-69.20471	35.705566	343.96597	-120.95391	-8.668253
1448010656039	-2.0456085205078125	4.404571533203125	-4.309661865234375	NaN	0	29.212952	-70.10498	35.406494	345.18063	-120.819534	-9.001144
1448010656079	-0.7352142333984375	5.832794189453125	-5.5653076171875	NaN	0	29.963684	-70.70465	30.155945	346.30368	-117.00372	-9.050347
1448010656119	-1.1827239990234375	12.295501708984375	-7.106597900390625	-7.805055643866388	0	30.264282	-70.10498	27.755737	346.44208	-114.94162	-9.169384
1448010656160	-1.0898895263671875	15.797027587890625	-7.632659912109375	-7.146810882529582	0	30.714417	-70.85419	25.656128	347.44598	-112.259926	-9.717494
1448010656200	-1.6492767333984375	4.7294921875	-7.796905517578125	NaN	0	29.212952	-68.90411	28.656006	349.05563	-115.039764	-8.352437
1448010656240	-1.2886505126953125	9.005828857421875	-1.743621826171875	-7.3625139707132465	0	28.314209	-67.85431	29.70581	349.44742	-115.39412	-8.184874
1448010656280	-7.3038482666015625	17.73345947265625	-0.5093994140625	-6.656963228562349	0	29.963684	-66.50543	27.9068	346.08282	-112.478775	-9.07772
1448010656321	-0.4876556396484375	6.28387451171875	-1.058074951171875	-7.629872198712379	0	30.563354	-66.204834	27.00653	343.1917	-110.450836	-8.434819
1448010656361	0.7929840087890625	6.720672607421875	3.228973388671875	-6.529004844267246	0	28.314209	-65.60516	22.65625	337.5679	-105.28281	-6.6014643
1448010656401	-3.2298431396484375	11.67779541015625	0.45703125	-6.82247809891958	0	28.314209	-66.65497	18.90564	330.76117	-100.76939	-7.163668
1448010656441	-1.1779632568359375	7.599029541015625	-1.11163330078125	-7.50237931104713	0	30.11322	-66.204834	15.756226	329.71158	-97.71534	-7.782365
1448010656482	-0.5638275146484375	7.337188720703125	0.067840576171875	-7.191030887507163	0	28.764343	-65.15503	12.306213	327.19046	-94.07196	-7.4649553
1448010656522	1.7522735595703125	9.34503173828125	-1.136627197265625	-6.650545802020197	0	29.814148	-64.25476	9.605408	324.99298	-91.20493	-7.711722
1448010656563	0.8322601318359375	9.785400390625	-1.323486328125	-6.75796519170696	0	30.413818	-62.904358	7.9559326	322.26675	-89.023865	-8.372741
1448010656603	0.1693267822265625	9.467620849609375	-1.450836181640625	-6.945461861042827	0	32.063293	-61.105347	6.3064575	320.0047	-87.11677	-9.448716
1448010656644	-0.6483306884765625	11.35406494140625	-1.0902099609375	-6.705709113175345	0	33.413696	-59.754944	5.706787	317.70328	-85.56343	-10.857553
1448010656684	1.1357574462890625	11.817047119140625	-1.209228515625	-6.37970985734811	0	34.313965	-58.554077	5.406189	314.92212	-84.84427	-12.002293
1448010656724	1.8760528564453125	11.3612060546875	-0.6331787109375	-6.256377443568457	0	34.913635	-57.05414	6.60553	312.48233	-85.035484	-12.628354
1448010656765	-2.2205657958984375	13.219085693359375	1.28778076171875	-6.3014180276653695	0	33.86383	-55.404663	8.555603	310.9142	-86.36076	-12.497661
1448010656805	-2.8370819091796875	12.459747314453125	2.760040283203125	-6.2876931117069095	0	33.1131	-56.004333	9.75647	310.16367	-87.85711	-11.839746
1448010656845	-3.9689483642578125	12.609710693359375	-0.082122802734375	-6.8810847417305805	0	32.36389	-54.804993	15.005493	308.4721	-92.24416	-10.924629
1448010656886	-2.5609588623046875	12.394287109375	-0.33563232421875	-6.724766791850739	0	29.663086	-52.404785	22.206116	304.80292	-99.44172	-8.600308
1448010656926	-1.8480377197265625	12.623992919921875	-1.310394287109375	-6.729984828567938	0	27.864075	-52.705383	24.905396	302.70203	-101.8855	-6.9655895
1448010656966	0.6263580322265625	6.342193603515625	0.28326416015625	-7.113680432709057	0	26.364136	-49.404907	29.70581	303.53943	-110.2589	-4.1102495
1448010657008	0.5478057861328125	5.3817138671875	1.40203857421875	-7.098914968919194	0	26.81427	-48.355103	31.20575	304.722	-112.604385	-4.30128
1448010657048	-3.1453399658203125	4.030853271484375	-9.529815673828125	NaN	0	29.663086	-44.454956	33.605957	311.28165	-120.02184	-7.6669536
1448010657089	-2.2788848876953125	3.892791748046875	-3.25634765625	NaN	0	29.51355	-44.454956	32.85675	313.78784	-120.43146	-8.306941
1448010657129	-1.3160247802734375	4.756866455078125	-5.33917236328125	NaN	0	29.963684	-45.204163	29.10614	314.59326	-118.28678	-8.813939
1448010657169	-1.3053131103515625	9.04510498046875	-6.856658935546875	-8.866848471897857	0	31.013489	-45.654297	27.156067	315.1936	-114.40593	-8.934186
1448010657209	-0.2912750244140625	16.982452392578125	-5.697418212890625	-6.490916185871542	0	30.264282	-45.654297	23.405457	316.33228	-112.09782	-9.421084
1448010657250	-2.9668121337890625	8.871337890625	-9.216796875	NaN	0	30.264282	-45.50476	24.456787	317.74426	-113.95508	-9.08873
1448010657290	-1.2719879150390625	11.890838623046875	-2.381561279296875	-6.936532156078721	0	30.11322	-44.00482	24.006653	318.07083	-114.75004	-8.345876
1448010657331	-4.4378814697265625	10.798248291015625	0.36895751953125	-7.212505872790983	0	29.963684	-43.855286	23.85559	315.14667	-113.501816	-8.330771
1448010657371	-1.4076690673828125	5.2864990234375	-2.562469482421875	-8.659272464536471	0	29.212952	-44.90509	21.755981	312.31085	-111.820854	-7.716364
1448010657411	1.1726531982421875	8.94989013671875	3.178985595703125	-6.1594738806199665	0	29.51355	-44.90509	18.455505	306.3836	-106.41961	-6.5601397
1448010657452	-4.2486419677734375	12.269317626953125	0.48797607421875	-6.889640669910113	0	29.663086	-45.204163	17.256165	298.99576	-101.796326	-7.447108
1448010657492	-0.6911773681640625	7.268157958984375	-0.681976318359375	-7.383789570771876	0	29.212952	-45.204163	13.656616	297.3844	-98.31699	-7.7647285
1448010657532	-0.4721832275390625	7.0955810546875	0.7283935546875	-7.095181297210639	0	30.413818	-46.10443	12.905884	294.62305	-96.22807	-7.5050993
1448010657572	0.3633270263671875	10.090087890625	-2.760040283203125	-7.0329066799321405	0	31.013489	-44.90509	8.856201	293.3224	-90.914444	-7.8078594
1448010657613	0.3609466552734375	9.60211181640625	0.205902099609375	-6.617719229057149	0	31.013489	-44.454956	7.5057983	291.888	-88.42622	-8.68124
1448010657653	-0.6257171630859375	10.81610107421875	-2.86358642578125	-7.099794228365921	0	32.36389	-43.104553	6.756592	289.70636	-86.27711	-9.676819
1448010657693	0.0622100830078125	11.298126220703125	-1.361572265625	-6.644517768607853	0	34.313965	-42.504883	6.60553	287.73096	-84.9153	-11.040382
1448010657734	1.9022369384765625	11.64923095703125	-0.9188232421875	-6.25235681004798	0	33.563232	-41.75415	6.906128	285.24463	-84.38685	-11.75773
1448010657775	-1.4838409423828125	12.75848388671875	0.76885986328125	-6.3362249759403255	0	34.4635	-41.45508	8.105469	283.39	-85.504395	-12.538662
1448010657815	-3.4393157958984375	11.75634765625	2.833831787109375	-6.467309110086253	0	31.764221	-41.905212	11.856079	281.70676	-88.466095	-11.246294
1448010657855	-4.4235992431640625	10.850616455078125	0.83074951171875	-7.112575738113553	0	32.513428	-41.15448	13.806152	280.72858	-90.89084	-10.70905
1448010657896	-3.3869476318359375	12.959625244140625	-0.462982177734375	-6.7883727993786955	0	30.714417	-41.905212	18.156433	278.20193	-95.91961	-9.542285
1448010657936	-1.0458526611328125	12.731109619140625	-0.972381591796875	-6.533547087777079	0	27.713013	-41.604614	22.805786	273.7006	-100.73311	-6.734175
1448010657977	-0.9280242919921875	10.032958984375	1.4139404296875	-6.563318463951932	0	26.963806	-41.15448	24.606323	272.48203	-104.76541	-4.412664
1448010658017	-0.1817779541015625	5.323394775390625	1.04022216796875	-7.320269573596901	0	26.663208	-40.104675	28.656006	275.04956	-111.77385	-3.6505573
1448010658057	-2.3538665771484375	4.986572265625	-2.105438232421875	-9.080468155184827	0	27.713013	-36.354065	30.755615	279.25464	-117.31599	-5.8645678
1448010658098	-1.6111907958984375	4.158203125	-4.30133056640625	NaN	0	28.314209	-35.905457	30.456543	283.96777	-120.76482	-7.6175566
1448010658138	-1.8611297607421875	4.173675537109375	-3.919281005859375	NaN	0	29.063416	-37.104797	29.255676	285.53845	-119.99103	-7.875047
1448010658179	-0.2805633544921875	5.435272216796875	-6.059234619140625	NaN	0	27.563477	-37.704468	27.456665	286.70016	-117.393524	-8.147818
1448010658219	-0.2198638916015625	11.493316650390625	-7.588623046875	-7.887008972746001	0	29.063416	-38.4552	24.156189	288.85828	-113.85864	-8.687179
1448010658260	-0.6007232666015625	15.117431640625	-7.451751708984375	-7.148601379789849	0	28.163147	-39.505005	22.65625	290.8774	-113.20322	-8.573814
1448010658300	-3.0525054931640625	6.24102783203125	-7.16015625	NaN	0	27.41394	-39.204407	24.156189	292.87082	-115.29463	-8.160109
1448010658340	-5.1638946533203125	12.7037353515625	-0.609375	-7.174022233201422	0	27.113342	-38.905334	24.75586	292.30624	-115.59665	-8.328675
1448010658381	-3.9594268798828125	9.962738037109375	-1.284210205078125	-7.634250821771868	0	27.113342	-39.35547	24.006653	289.40067	-114.483086	-9.314666
1448010658421	1.0191192626953125	7.998931884765625	-0.094024658203125	-6.819289087279696	0	25.613403	-39.35547	23.405457	285.67526	-111.73331	-8.105891
1448010658461	1.6427764892578125	8.89276123046875	1.6710205078125	-6.312811479276534	0	24.864197	-40.855408	21.606445	283.04495	-108.90381	-7.0138173
1448010658502	-5.1757965087890625	10.604248046875	-1.534149169921875	-7.833201315454968	0	23.66333	-41.75415	18.30597	273.45142	-102.01029	-6.8282633
1448010658542	-0.8863677978515625	6.796844482421875	0.7283935546875	-7.229999480078874	0	23.963928	-42.65442	15.606689	271.52094	-98.19391	-6.948851
1448010658583	0.0479278564453125	7.889434814453125	0.129730224609375	-6.966337178444957	0	22.763062	-43.40515	13.505554	268.53604	-94.4835	-6.810748
1448010658624	0.8429718017578125	9.710418701171875	-2.124481201171875	-6.9033416060987935	0	23.06366	-42.204285	9.906006	266.7952	-90.38583	-7.48105
1448010658664	0.4252166748046875	9.196258544921875	-0.83074951171875	-6.8416841988333275	0	23.06366	-42.80548	9.156799	264.99796	-88.06064	-8.350799
1448010658705	-0.0092010498046875	9.4949951171875	-1.886444091796875	-7.049908146421522	0	23.06366	-42.355347	8.105469	264.57745	-87.08692	-8.896001
1448010658746	1.1702728271484375	11.733734130859375	-0.689117431640625	-6.311619381117087	0	23.814392	-40.704346	7.206726	262.28735	-85.24437	-11.115158
1448010658786	2.2295379638671875	11.283843994140625	-1.36871337890625	-6.321679831746276	0	23.963928	-42.05475	7.5057983	261.689	-85.10107	-11.649399
1448010658826	-0.9530181884765625	11.765869140625	-0.1380615234375	-6.539370374046088	0	23.66333	-41.45508	8.256531	260.6847	-86.13734	-12.140196
1448010658867	-3.5619049072265625	11.37548828125	3.06829833984375	-6.5078302726823765	0	23.513794	-41.604614	9.156799	260.04785	-87.16469	-11.826023
1448010658907	-3.8154144287109375	12.60614013671875	-0.3189697265625	-6.8959718922807545	0	21.113586	-40.704346	14.405823	258.20993	-91.36519	-10.814278
1448010658947	-2.2872161865234375	12.56805419921875	0.161865234375	-6.57508282581226	0	20.063782	-40.855408	17.4057	255.77998	-96.06429	-9.587878
1448010658988	-2.1812896728515625	12.603759765625	-3.519378662109375	-7.179226514812927	0	14.813232	-39.95514	23.556519	250.64566	-103.16095	-5.2768106
1448010659028	-0.2067718505859375	7.5621337890625	1.28302001953125	-6.867487556079588	0	14.213562	-37.405396	25.35553	251.19156	-107.169266	-3.79988
1448010659068	0.0574493408203125	5.511444091796875	-0.681976318359375	-7.595962735712208	0	13.464355	-37.85553	27.156067	252.29095	-109.40868	-3.5263612
1448010659109	-0.9268341064453125	5.44598388671875	0.26898193359375	-7.618419999664747	0	15.863037	-34.254456	30.60608	257.95013	-116.46291	-5.332545
1448010659149	-2.1812896728515625	3.407196044921875	-2.8135986328125	NaN	0	16.61377	-32.304382	31.655884	262.92877	-120.301476	-7.746244
1448010659189	-2.3752899169921875	4.06298828125	-4.157318115234375	NaN	0	15.863037	-32.00531	31.20575	264.96014	-120.010155	-8.355513
1448010659230	-0.7899627685546875	7.97393798828125	-6.34368896484375	-8.88992870946952	0	16.0141	-34.254456	27.9068	266.35245	-117.34192	-8.770759
1448010659270	-1.2065277099609375	17.510894775390625	-4.95355224609375	-6.437502966767514	0	16.163635	-34.555054	25.956726	268.75067	-113.61663	-9.439885
1448010659310	-3.5880889892578125	9.01416015625	-10.3546142578125	-7.179679548297986	0	14.663696	-32.754517	27.00653	270.42828	-113.27824	-9.112048
1448010659351	-2.4240875244140625	4.54620361328125	-4.79168701171875	NaN	0	13.464355	-31.555176	27.305603	272.03455	-115.831345	-7.8298454
1448010659391	-1.9837188720703125	10.738739013671875	-1.845977783203125	-7.178094272709599	0	13.912964	-31.105042	26.556396	272.3227	-115.78847	-8.270053
1448010659432	-1.8730316162109375	10.29718017578125	0.403472900390625	-6.827867297869412	0	13.464355	-30.505371	25.506592	268.18805	-114.05764	-9.151905
1448010659472	0.8239288330078125	7.0194091796875	0.07379150390625	-6.992860581254624	0	12.413025	-31.555176	22.65625	262.0313	-109.749084	-6.821304
1448010659512	-2.3669586181640625	8.0810546875	2.921905517578125	-6.867892531245401	0	11.663818	-31.254578	18.756104	255.2723	-104.13208	-5.8623085
1448010659553	-3.2988739013671875	11.56353759765625	-1.63531494140625	-7.231847826511682	0	10.913086	-31.555176	16.056824	248.76181	-100.13861	-6.6663275
1448010659593	-0.3448333740234375	7.042022705078125	0.603424072265625	-7.1046352697860184	0	11.663818	-32.754517	13.505554	246.03151	-96.49907	-6.6128006
1448010659635	0.8132171630859375	8.090576171875	0.367767333984375	-6.761676245791151	0	10.76355	-31.404114	10.806274	243.17123	-93.01406	-6.4199996
1448010659675	1.9676971435546875	10.015106201171875	-1.6329345703125	-6.589478806383871	0	11.514282	-31.254578	8.856201	241.86519	-90.41489	-7.1297593
1448010659716	0.8989105224609375	9.33551025390625	-0.722442626953125	-6.722450498206342	0	12.564087	-30.055237	7.8063965	240.20084	-88.23141	-8.190416
1448010659756	-0.2710418701171875	10.33050537109375	-2.769561767578125	-7.106618197580132	0	13.613892	-29.455566	6.60553	239.3505	-86.471565	-9.529667
1448010659796	0.6953887939453125	11.502838134765625	-0.889068603515625	-6.4436907943872	0	13.763428	-30.055237	5.8563232	238.71387	-85.81425	-10.405779
1448010659836	1.8939056396484375	10.824432373046875	-1.171142578125	-6.40848354605521	0	14.813232	-26.904297	4.5059204	237.22964	-85.20336	-12.206088
1448010659877	1.8808135986328125	10.731597900390625	-0.267791748046875	-6.293108894137262	0	15.263367	-28.105164	4.9560547	237.03711	-85.48466	-12.438919
1448010659917	-3.3345794677734375	13.100067138671875	2.933807373046875	-6.2429929728510585	0	14.813232	-25.704956	5.105591	236.47694	-88.464935	-11.818694
1448010659957	-3.1274871826171875	11.962249755859375	1.99237060546875	-6.5161390628802565	0	14.663696	-24.354553	6.756592	235.4461	-92.46326	-10.599608
1448010659997	-3.7654266357421875	13.350006103515625	-0.517730712890625	-6.795479153058978	0	13.613892	-25.105286	8.256531	234.21078	-96.955574	-8.954678
1448010660038	-2.2860260009765625	12.435943603515625	-1.32586669921875	-6.836069592257922	0	13.313293	-24.50409	9.156799	231.48769	-101.57546	-5.9828553
1448010660081	-1.0041961669921875	8.96417236328125	0.724822998046875	-6.859601663669295	0	12.863159	-25.55542	10.806274	231.98889	-105.41489	-3.955127
1448010660122	0.3180999755859375	6.389801025390625	1.403228759765625	-6.864856576430026	0	13.464355	-26.304626	12.905884	236.08484	-109.60115	-3.5141873
1448010660163	-3.5916595458984375	4.7818603515625	-4.583404541015625	NaN	0	13.763428	-25.854492	14.256287	241.42834	-115.05202	-5.2982574
1448010660203	-3.2524566650390625	3.38458251953125	-9.7357177734375	NaN	0	13.464355	-26.005554	15.156555	247.04071	-120.396545	-6.677634
1448010660243	-2.1777191162109375	4.51287841796875	-4.81549072265625	NaN	0	13.613892	-26.15509	13.505554	250.83449	-120.170525	-8.382442
1448010660284	-0.5424041748046875	6.270782470703125	-5.397491455078125	-9.231372357392038	0	14.213562	-26.605225	10.955811	252.66878	-117.50082	-8.661856
1448010660324	-1.5028839111328125	11.509979248046875	-7.408905029296875	-8.194709709807398	0	14.813232	-26.904297	8.406067	253.77774	-115.82145	-8.894629
1448010660364	-1.3779144287109375	12.9893798828125	-7.389862060546875	-7.751945918760365	0	14.363098	-27.354431	7.055664	257.77426	-114.070015	-9.144138
1448010660405	-2.4431304931640625	6.5909423828125	-7.044708251953125	NaN	0	14.51416	-28.105164	6.4559937	259.4032	-115.57827	-8.06939
1448010660445	-3.8761138916015625	15.0364990234375	-2.214935302734375	-6.815705513545895	0	15.263367	-29.154968	6.1553955	259.43585	-115.79221	-8.491165
1448010660486	-3.4381256103515625	9.291473388671875	-0.2713623046875	-7.443977416168039	0	16.313171	-29.455566	4.9560547	256.9288	-114.68768	-8.859079
1448010660526	0.1348114013671875	6.471923828125	-0.579620361328125	-7.351581696979824	0	17.063904	-30.35431	3.4561157	254.4715	-112.44898	-7.503908
1448010660567	0.1407623291015625	9.42596435546875	2.588653564453125	-6.3201433103187075	0	18.414307	-29.605103	0.9063721	249.36102	-107.07127	-5.899449
1448010660607	-3.9356231689453125	10.053192138671875	2.398223876953125	-6.657341131488483	0	20.36438	-27.65503	0.4562378	245.6326	-104.58262	-6.067084
1448010660648	-0.1115570068359375	7.037261962890625	0.93548583984375	-7.00281848285241	0	21.263123	-27.354431	-2.0935059	240.77899	-99.09499	-6.419881
1448010660688	0.7882232666015625	7.37408447265625	0.637939453125	-6.840078941186695	0	23.814392	-26.454163	-3.894043	238.38263	-95.27352	-6.003749
1448010660728	0.8251190185546875	9.624725341796875	-2.333953857421875	-6.957759796877037	0	23.963928	-26.454163	-5.393982	238.6442	-92.36812	-6.4821377
1448010660769	0.8548736572265625	8.836822509765625	-0.6141357421875	-6.793700993261691	0	26.063538	-24.954224	-6.4437866	238.54276	-90.12181	-7.444766
1448010660809	-0.3400726318359375	10.874420166015625	-2.58746337890625	-6.987578156297216	0	27.563477	-24.50409	-7.344055	239.12415	-86.96106	-9.302524
1448010660849	1.1357574462890625	11.674224853515625	-0.92120361328125	-6.358589169604677	0	29.963684	-24.354553	-8.39386	238.95554	-85.5825	-10.730028
1448010660889	2.1367034912109375	11.423095703125	-1.01641845703125	-6.264936444930901	0	32.963562	-23.304749	-8.694458	239.22652	-85.50381	-11.659971
1448010660930	-1.3541107177734375	13.478546142578125	1.438934326171875	-6.123751951142083	0	33.1131	-23.754883	-8.244324	239.91591	-86.31152	-11.649477
1448010660970	-2.6442718505859375	13.940338134765625	1.6805419921875	-6.204294033488106	0	33.563232	-25.105286	-7.6446533	240.58885	-87.29665	-10.96048
1448010661010	-4.4807281494140625	10.80181884765625	1.2996826171875	-7.046025183873892	0	34.16443	-28.555298	-5.393982	240.71384	-91.06236	-9.604724
1448010661051	-4.2974395751953125	12.9417724609375	-0.790283203125	-7.004092251104881	0	34.4635	-30.055237	-3.7445068	238.9711	-96.2166	-8.756607
1448010661091	-0.0710906982421875	11.36358642578125	-2.255401611328125	-6.800424004451679	0	35.36377	-34.854126	2.256775	235.37224	-103.090645	-5.283512
1448010661131	-0.2603302001953125	8.196502685546875	1.32110595703125	-6.764022401584009	0	34.16443	-37.104797	4.5059204	237.67139	-106.800766	-4.2574615
1448010661172	-1.3981475830078125	5.8101806640625	1.012847900390625	-7.477462610010884	0	32.662964	-39.35547	6.756592	239.3747	-109.25107	-4.204193
1448010661212	-2.2955474853515625	5.232940673828125	-3.275390625	NaN	0	33.1131	-40.25421	9.455872	247.42322	-117.690475	-6.960532
1448010661253	-1.5409698486328125	4.39862060546875	-3.7562255859375	NaN	0	33.563232	-41.15448	9.906006	252.82263	-121.052704	-8.608792
1448010661295	-1.7528228759765625	4.478363037109375	-4.214447021484375	NaN	0	33.26416	-42.204285	8.706665	255.5393	-120.63086	-9.054313
1448010661336	-0.6459503173828125	5.449554443359375	-6.363922119140625	NaN	0	34.013367	-43.40515	6.3064575	258.66446	-118.02682	-9.455431
1448010661376	-0.3031768798828125	10.338836669921875	-6.541259765625	-7.937268562182173	0	34.16443	-44.90509	3.0059814	262.0435	-114.4007	-9.514388
1448010661416	-2.2193756103515625	14.8555908203125	-6.66265869140625	-7.3625139707132465	0	33.413696	-46.40503	2.256775	263.56625	-113.39393	-9.497323
1448010661457	-3.1417694091796875	10.710174560546875	-8.50506591796875	NaN	0	32.513428	-46.7041	3.0059814	266.1609	-114.29095	-8.729824
1448010661497	-6.7349395751953125	13.078643798828125	-0.008331298828125	-7.289583328461115	0	33.86383	-48.054504	5.105591	268.11688	-116.15407	-8.438303
1448010661537	-2.3491058349609375	9.955596923828125	-2.429168701171875	-7.531226978340625	0	35.664368	-47.60437	5.555725	266.02094	-115.89994	-10.523873
1448010661578	1.5499420166015625	9.4093017578125	1.54248046875	-6.381273098829425	0	35.664368	-48.805237	3.90625	263.2892	-112.660576	-8.663897
1448010661618	-4.9996490478515625	9.85443115234375	-0.681976318359375	-7.763855330166589	0	36.413574	-47.454834	3.0059814	255.7542	-107.35806	-7.061327
1448010661659	-3.6797332763671875	10.50189208984375	-3.376556396484375	-7.950366604924858	0	38.963318	-48.50464	1.9561768	254.24176	-103.7674	-7.2131004
1448010661699	-0.5578765869140625	7.18603515625	1.543670654296875	-6.947958850147012	0	39.11438	-46.554565	0.30670166	252.4943	-99.71316	-6.899614
1448010661741	1.1202850341796875	8.760650634765625	-0.58795166015625	-6.758160397713436	0	40.164185	-45.355225	-1.0437012	250.15407	-96.26692	-7.066689
1448010661781	0.4002227783203125	9.548553466796875	-2.0709228515625	-6.999848604960765	0	41.81366	-46.40503	-2.6931763	251.0784	-93.55359	-7.850462
1448010661822	0.2169342041015625	8.97369384765625	-0.523681640625	-6.86263219937228	0	42.564392	-45.355225	-2.9937744	250.43982	-90.927246	-8.414324
1448010661862	-0.6935577392578125	11.007720947265625	-2.03759765625	-6.929697924544908	0	45.413208	-44.00482	-4.6432495	250.6113	-87.84577	-10.124409
1448010661902	0.3145294189453125	10.843475341796875	-0.93072509765625	-6.608588170271107	0	46.313477	-43.40515	-3.5934448	249.8859	-86.688	-11.620198
