timestamp	accel_x	accel_y	accel_z	accel_mag	temperature	mag_x	mag_y	mag_z	azimuth	pitch	roll
1448007247395	-1.9801483154296875	6.395751953125	6.663848876953125	-6.478018843613928	0	11.740112	-29.470825	-12.6953125	196.97148	-43.53236	-13.165038
1448007247435	-2.3074493408203125	6.38623046875	7.0506591796875	-6.4705184201196175	0	11.590576	-30.072021	-12.6953125	197.26541	-43.40664	-13.041446
1448007247476	-2.6502227783203125	6.85516357421875	6.180633544921875	-6.583934280316943	0	11.289978	-30.072021	-13.444519	197.323	-42.940903	-12.710069
1448007247516	-1.7444915771484375	6.75042724609375	5.399871826171875	-6.580796612451839	0	11.44104	-29.32129	-14.045715	197.37442	-42.744186	-12.332618
1448007247556	-2.5383453369140625	6.2957763671875	6.4412841796875	-6.613057263482929	0	11.140442	-29.022217	-15.245056	197.94293	-40.03453	-10.122984
1448007247596	-2.6371307373046875	6.118438720703125	7.75286865234375	-6.454857671636707	0	9.339905	-29.470825	-16.445923	196.99364	-37.456192	-8.251678
1448007247637	-0.2103424072265625	6.627838134765625	7.59100341796875	-6.063807039454652	0	8.439636	-30.072021	-17.045593	194.38234	-35.479607	-6.179358
1448007247677	-1.0172882080078125	4.985382080078125	7.50531005859375	-6.419358654795312	0	8.140564	-29.470825	-17.645264	192.74422	-34.85926	-5.0830107
1448007247717	-0.8101959228515625	4.925872802734375	8.401519775390625	-6.268634955617362	0	5.5908203	-30.072021	-18.695068	186.79231	-32.173435	-3.6176162
1448007247758	0.2324066162109375	3.635711669921875	10.743804931640625	-5.984045459149936	0	4.5410156	-31.121826	-19.4458	181.72203	-30.349636	-3.6896453
1448007247798	0.1990814208984375	3.690460205078125	10.406982421875	-6.025525543201832	0	4.3899536	-31.721497	-18.995667	179.435	-29.666632	-4.1496964
1448007247839	-1.0577545166015625	3.740447998046875	9.510772705078125	-6.314685598625957	0	4.2404175	-31.420898	-19.294739	177.20764	-28.78573	-5.00908
1448007247879	-0.3995819091796875	4.92706298828125	13.84661865234375	-5.520097960872372	0	3.640747	-32.920837	-18.844604	175.44135	-28.186533	-5.8195257
1448007247920	-0.1639251708984375	4.794952392578125	6.416290283203125	-6.48284948215381	0	3.340149	-33.67157	-17.045593	171.96332	-32.254444	-7.5234566
1448007247960	0.1776580810546875	4.148681640625	8.27178955078125	-6.257215648811622	0	2.7404785	-34.721375	-16.29486	170.82007	-32.555138	-7.1732087
1448007248001	-0.3591156005859375	4.849700927734375	10.5640869140625	-5.92656491752833	0	1.84021	-34.420776	-16.894531	170.9643	-31.992294	-6.6282763
1448007248041	-0.2186737060546875	3.7392578125	9.901153564453125	-6.1430310200436455	0	1.6906738	-35.621643	-16.145325	170.73553	-32.849068	-6.023512
1448007248082	-2.6240386962890625	4.2724609375	5.589111328125	-7.116333550494312	0	1.2405396	-35.17151	-14.344788	169.5824	-36.31801	-5.395382
1448007248122	0.0657806396484375	4.64141845703125	3.831207275390625	-6.884544837606532	0	-1.4602661	-34.721375	-13.894653	167.84015	-38.171917	-1.180404
1448007248163	2.1295623779296875	5.41741943359375	6.61981201171875	-6.042719844729087	0	-4.7592163	-34.721375	-15.245056	165.99597	-37.153423	5.1144247
1448007248204	2.7579803466796875	4.383148193359375	6.236572265625	-6.149046062507886	0	-6.7092896	-33.821106	-17.945862	164.9314	-35.701748	7.225279
1448007248245	-2.8477935791015625	4.352203369140625	9.82855224609375	-6.440153500182602	0	-8.509827	-32.7713	-19.595337	162.33417	-30.00928	11.034145
1448007248285	3.2959442138671875	3.4869384765625	7.798095703125	-5.988095267312781	0	-10.4599	-30.671692	-20.344543	158.88562	-27.279625	14.396001
1448007248325	5.8738861083984375	3.709503173828125	6.218719482421875	-5.831413367318657	0	-14.5095825	-27.520752	-20.794678	154.6997	-24.832985	19.676502
1448007248365	0.7096710205078125	1.77545166015625	10.74261474609375	-5.737755420046089	0	-14.959717	-26.62201	-21.54541	151.81104	-20.727108	22.635939
1448007248406	2.8412933349609375	1.424346923828125	8.33367919921875	-6.2570479919280215	0	-15.559387	-25.72174	-21.395874	148.78754	-17.663122	23.554968
1448007248446	5.3918609619140625	1.398162841796875	7.50531005859375	-6.025682933691259	0	-18.10913	-24.07074	-21.244812	144.17764	-15.049614	25.51459
1448007248487	3.9886322021484375	0.6923828125	7.1077880859375	-6.298533037486804	0	-18.859863	-21.97113	-21.395874	139.71222	-11.771585	26.577982
1448007248527	8.036453247070313	0.041351318359375	11.9827880859375	-5.327694703907305	0	-20.359802	-20.021057	-22.14508	135.66663	-8.005657	27.597328
1448007248567	7.9686126708984375	-0.62158203125	9.76190185546875	-5.670305463205359	0	-22.309875	-19.721985	-21.244812	131.30493	-5.9331756	28.542458
1448007248608	5.6001434326171875	-0.15740966796875	10.634307861328125	-5.796981361528684	0	-21.109009	-18.070984	-20.94574	130.5904	-5.9235897	28.889576
1448007248648	6.5272979736328125	0.822113037109375	7.466033935546875	-5.957516349793231	0	-22.009277	-18.971252	-20.794678	128.2002	-5.9456453	29.885303
1448007248688	3.7803497314453125	1.998016357421875	9.0882568359375	-5.68616166349247	0	-22.459412	-19.421387	-20.645142	127.75864	-5.509134	30.045036
1448007248730	4.3147430419921875	0.987548828125	10.3641357421875	-5.848516169116085	0	-22.76001	-17.771912	-20.94574	127.1337	-4.416529	29.85152
1448007248771	6.5511016845703125	0.584075927734375	9.170379638671875	-5.766081418768942	0	-23.059082	-17.921448	-20.645142	125.92468	-3.6965938	30.620829
1448007248811	6.4106597900390625	0.246063232421875	9.6785888671875	-5.764903340223509	0	-23.059082	-16.571045	-21.095276	125.31583	-3.5187204	31.33145
1448007248851	4.6099090576171875	0.691192626953125	7.273223876953125	-6.260570451120938	0	-22.608948	-18.521118	-21.244812	125.98834	-5.0944457	30.985525
1448007248893	4.9038848876953125	1.695709228515625	9.601226806640625	-5.781575661831153	0	-22.309875	-18.070984	-21.244812	126.388	-6.0131063	30.245644
1448007248934	5.4751739501953125	2.42767333984375	9.029937744140625	-5.691653459134653	0	-23.059082	-18.971252	-21.095276	126.42984	-6.4653654	30.166143
1448007248974	2.9948272705078125	1.996826171875	7.863555908203125	-6.221183796741871	0	-22.16034	-18.371582	-21.395874	126.983215	-7.4949074	29.440557
1448007249014	3.9457855224609375	1.617156982421875	7.213714599609375	-6.2321549935000835	0	-23.059082	-20.021057	-21.395874	127.33658	-7.534446	28.959772
1448007249054	4.0457611083984375	1.89208984375	7.80047607421875	-6.100075074093365	0	-22.608948	-20.620728	-21.54541	127.05328	-7.2822003	29.150738
1448007249095	4.2647552490234375	2.221771240234375	8.0361328125	-5.995739296463617	0	-21.710205	-19.871521	-22.14508	126.35791	-6.935258	28.464212
1448007249135	3.7172698974609375	0.95184326171875	6.768585205078125	-6.42463335849423	0	-20.959473	-19.570923	-22.445679	126.0813	-6.8277435	27.106176
1448007249175	3.9303131103515625	0.49957275390625	7.363677978515625	-6.372424139218634	0	-21.559143	-19.421387	-22.744751	125.436646	-6.2131047	26.96321
1448007249220	5.3383026123046875	0.86614990234375	7.80047607421875	-6.0642840607897375	0	-22.009277	-19.27185	-22.294617	123.58447	-5.449531	27.533367
1448007249260	4.3349761962890625	1.796875	6.813812255859375	-6.2085917381767395	0	-22.608948	-18.070984	-22.595215	120.80142	-5.7825346	27.049932
1448007249301	3.0781402587890625	2.634765625	5.46295166015625	-6.463568809008011	0	-23.210144	-18.971252	-22.14508	114.14029	-6.4616556	26.878277
1448007249341	4.0814666748046875	1.52313232421875	5.989013671875	-6.401660548130343	0	-25.759888	-16.571045	-21.095276	110.84677	-5.5432777	27.48516
1448007249381	8.268539428710938	-0.53350830078125	14.223907470703125	-5.1205634445906405	0	-25.759888	-12.670898	-22.744751	101.675354	-0.0018354061	27.721859
1448007249422	5.6322784423828125	-0.803680419921875	10.808074951171875	-5.8522766731041305	0	-25.759888	-14.772034	-22.595215	100.787476	-0.3072296	26.163912
1448007249462	2.5151824951171875	-0.563262939453125	8.399139404296875	-6.5892938349045895	0	-23.95935	-15.821838	-23.794556	100.035034	-3.0038497	22.318493
1448007249503	3.9672088623046875	-0.294281005859375	7.642181396484375	-6.554523120785685	0	-25.160217	-15.52124	-23.04535	98.518555	-4.8006067	21.184162
1448007249543	3.7970123291015625	1.53741455078125	8.946624755859375	-6.027572130859288	0	-25.610352	-16.871643	-21.995544	97.78473	-6.234848	23.034317
1448007249583	3.3828277587890625	1.25653076171875	9.072784423828125	-6.10360891922004	0	-26.509094	-17.321777	-20.794678	99.34262	-9.512036	25.759878
1448007249624	5.2335662841796875	3.272705078125	8.056365966796875	-5.736877978890749	0	-25.909424	-19.27185	-19.145203	100.11502	-10.339652	26.751383
1448007249664	4.2623748779296875	3.1441650390625	9.375091552734375	-5.710061037689673	0	-28.309631	-19.570923	-19.595337	102.484924	-12.489579	29.571426
1448007249704	5.1930999755859375	5.748291015625	6.254425048828125	-5.659816181178591	0	-27.11029	-22.871399	-14.344788	107.10101	-17.255411	32.85917
1448007249745	6.2249908447265625	5.449554443359375	10.003509521484375	-5.150630196664682	0	-26.210022	-24.821472	-10.444641	120.45581	-25.32891	36.677353
1448007249785	4.7134552001953125	5.247222900390625	6.42938232421875	-5.758136041310891	0	-23.95935	-29.92096	-7.444763	132.0769	-39.341244	39.08488
1448007249825	6.3797149658203125	6.3052978515625	7.118499755859375	-5.356486229179956	0	-19.909668	-32.17163	-5.345154	144.90399	-48.28137	39.292202
1448007249867	8.124526977539063	7.246734619140625	7.273223876953125	-5.047977775696749	0	-16.760254	-34.57184	-2.7954102	158.67078	-57.06652	38.654556
1448007249907	6.9474334716796875	6.199371337890625	4.850006103515625	-5.5643351670262335	0	-13.760376	-35.021973	-1.7456055	164.46307	-60.357456	37.65547
1448007249947	6.8986358642578125	4.878265380859375	4.723846435546875	-5.744488765596877	0	-11.05957	-36.972046	-2.645874	177.19849	-64.161514	33.84311
1448007249988	6.9033966064453125	5.059173583984375	4.32037353515625	-5.771387028472234	0	-9.8602295	-37.87079	-3.994751	182.14523	-63.618176	33.056572
1448007250028	5.9048309326171875	7.03131103515625	3.709808349609375	-5.726655108536046	0	-9.7091675	-37.87079	-5.795288	182.05843	-60.524536	32.73051
1448007250068	5.1454925537109375	7.058685302734375	2.5469970703125	-5.965874166676588	0	-9.7091675	-38.171387	-8.045959	180.61015	-56.402836	32.311783
1448007250109	5.0966949462890625	5.272216796875	4.716705322265625	-5.922579265576754	0	-9.410095	-38.471985	-8.795166	181.95715	-54.01771	32.3916
1448007250150	4.7824859619140625	5.20318603515625	4.819061279296875	-5.958908058541174	0	-9.109497	-38.471985	-9.095764	183.70576	-54.50221	31.800886
1448007250190	4.5361175537109375	5.82684326171875	5.81524658203125	-5.784385759378183	0	-7.9101563	-39.071655	-8.494568	185.28793	-56.12522	30.18152
1448007250230	5.5834808349609375	5.997039794921875	5.064239501953125	-5.726800969185376	0	-5.809021	-39.671326	-9.394836	188.83434	-56.94132	28.634455
1448007250270	5.8488922119140625	5.824462890625	6.432952880859375	-5.551449240814323	0	-4.460144	-40.12146	-9.545898	193.23679	-57.758884	27.562513
1448007250311	5.0478973388671875	7.987030029296875	4.035919189453125	-5.674911899765764	0	-2.5100708	-39.971924	-8.494568	196.48596	-60.015953	26.602362
1448007250351	4.4361419677734375	6.530242919921875	4.49652099609375	-5.874309842370598	0	-2.3590088	-41.02173	-6.994629	200.92525	-63.822357	26.115423
1448007250391	4.6218109130859375	9.700897216796875	4.0799560546875	-5.51676734771969	0	-1.4602661	-41.6214	-4.7454834	205.51308	-68.93016	26.31418
1448007250432	3.7993927001953125	10.255523681640625	1.841217041015625	-5.819604461646393	0	-0.55999756	-42.9718	-3.3950806	207.25893	-73.85469	26.182182
1448007250472	2.9555511474609375	11.400482177734375	-3.29681396484375	-6.481059538608564	0	-0.7095337	-42.9718	0.20446777	207.13776	-77.42896	25.743484
1448007250512	3.3471221923828125	9.141510009765625	1.4520263671875	-6.072880866302884	0	-1.0101318	-42.9718	1.5548706	206.99992	-80.27858	24.842983
1448007250553	2.9246063232421875	6.746856689453125	2.218505859375	-6.358416583754525	0	0.03967285	-44.621277	2.4551392	207.92238	-82.02859	23.871822
1448007250593	2.0569610595703125	7.525238037109375	1.093780517578125	-6.53918823925453	0	1.0910034	-43.72101	3.9550781	208.0404	-84.239105	22.927605
1448007250634	2.4675750732421875	7.613311767578125	2.195892333984375	-6.302776492058327	0	1.3900757	-43.270874	5.154419	208.83728	-86.12249	22.055038
1448007250674	3.0805206298828125	7.996551513671875	-1.962615966796875	-6.787584237080267	0	1.9897461	-43.72101	6.80542	208.58069	-87.95967	20.963774
1448007250715	2.2938079833984375	10.110321044921875	-3.1278076171875	-6.76089459547828	0	2.2903442	-43.571472	8.454895	208.68251	-90.24898	20.064138
1448007250755	3.9743499755859375	9.5711669921875	-0.379669189453125	-6.178122663937348	0	3.340149	-42.82074	9.054565	210.60384	-92.197784	19.767597
1448007250796	2.5949249267578125	9.129608154296875	-0.999755859375	-6.531729434362376	0	4.0908813	-43.270874	9.654236	210.73325	-92.35807	19.505178
1448007250836	3.9933929443359375	9.020111083984375	-3.152801513671875	-6.666424445250164	0	3.340149	-44.47174	10.255432	210.70647	-92.592766	19.207457
1448007250877	3.2019195556640625	9.67352294921875	-0.8759765625	-6.502422752896957	0	3.340149	-43.571472	10.255432	211.11131	-92.34316	19.351357
1448007250920	3.9767303466796875	9.603302001953125	-0.99261474609375	-6.2587249172865365	0	2.2903442	-44.770813	10.554504	211.8376	-92.24938	20.828066
1448007250960	2.9365081787109375	7.2003173828125	-2.64697265625	-7.069840437072807	0	2.2903442	-44.47174	11.755371	211.81215	-92.69576	21.920496
1448007251000	5.7441558837890625	7.846588134765625	1.058074951171875	-5.979222442229331	0	1.84021	-45.521545	11.604309	213.75426	-93.39898	22.512045
1448007251040	1.2547760009765625	11.11602783203125	-0.59747314453125	-6.375371256754139	0	3.0410767	-45.220947	12.205505	212.04039	-91.62739	20.728989
1448007251081	-1.2755584716796875	11.623046875	1.85906982421875	-6.312811479276534	0	4.0908813	-45.220947	11.154175	208.51299	-88.66503	16.713663
1448007251121	0.9334259033203125	6.35528564453125	4.3941650390625	-6.388577678991247	0	4.840088	-46.121216	10.704041	205.79416	-86.41473	15.017683
1448007251161	2.2604827880859375	6.946807861328125	0.931915283203125	-6.622388020150481	0	5.290222	-45.07141	11.755371	202.10999	-85.57728	12.168282
1448007251202	0.2574005126953125	8.524993896484375	1.9566650390625	-6.52954958106498	0	7.0907593	-44.621277	12.054443	200.84546	-85.144394	8.870955
1448007251242	-0.1770172119140625	7.176513671875	3.148040771484375	-6.6210800688984355	0	8.2901	-43.72101	12.205505	200.54356	-84.08436	6.244643
1448007251282	0.1847991943359375	5.59832763671875	1.241363525390625	-7.156224487653624	0	11.140442	-43.121338	13.85498	201.32077	-85.15285	3.1041598
1448007251323	1.6249237060546875	6.0672607421875	5.057098388671875	-6.235986210059387	0	12.940979	-41.6214	13.85498	201.42984	-85.62097	-0.98628694
1448007251363	0.0848236083984375	1.0018310546875	-2.129241943359375	NaN	0	19.239807	-38.92212	12.205505	205.53822	-85.705864	-4.7632036
1448007251403	-18.104782104492188	38.94256591796875	9.658355712890625	-4.284269013327145	0	20.289612	-37.27112	11.004639	210.94531	-83.77315	-8.814996
1448007251443	0.3359527587890625	-0.497802734375	1.86383056640625	-8.50200021814339	0	20.59021	-39.671326	10.10437	209.88132	-81.68875	-9.675007
1448007251484	-1.3136444091796875	19.29498291015625	0.8616943359375	-5.465743766845755	0	21.340942	-40.12146	9.954834	209.07469	-78.76405	-10.908923
1448007251524	2.0379180908203125	10.345977783203125	3.741943359375	-5.790900903528946	0	21.340942	-38.62152	10.255432	208.50154	-78.57543	-11.307968
1448007251564	0.5823211669921875	10.46856689453125	0.993804931640625	-6.336053502232816	0	21.640015	-39.22119	11.154175	207.38626	-80.14246	-12.027851
1448007251605	0.0348358154296875	10.553070068359375	0.0	-6.5526937499999995	0	21.640015	-36.972046	14.004517	206.49667	-81.13642	-12.055776
1448007251645	-0.4126739501953125	12.07293701171875	3.6419677734375	-5.89479340522043	0	20.739746	-38.62152	15.655518	204.52849	-83.196266	-11.302504
1448007251685	-2.9572906494140625	10.7899169921875	1.31158447265625	-6.782660381649513	0	19.540405	-37.571716	18.954468	202.41605	-86.596634	-9.75712
1448007251726	-0.9125518798828125	4.52001953125	-0.59033203125	-8.06960960851328	0	18.341064	-36.671448	21.80481	201.67068	-90.81909	-8.090094
1448007251766	-4.1748504638671875	13.4844970703125	-2.217315673828125	-7.143456944770486	0	19.540405	-35.472107	23.304749	206.69696	-97.37702	-5.650403
1448007251806	-2.3193511962890625	10.8280029296875	-2.2232666015625	-7.299532962237359	0	18.940735	-35.621643	23.904419	208.80804	-98.76201	-4.531309
1448007251846	-0.6757049560546875	8.02154541015625	0.451080322265625	-7.014303315124414	0	18.190002	-36.37085	25.105286	210.63747	-101.86811	-0.16213866
1448007251887	-1.1708221435546875	6.723052978515625	-1.755523681640625	-7.8580859114391	0	18.040466	-35.621643	25.854492	211.9266	-103.36893	0.63048357
1448007251927	-1.4874114990234375	7.12890625	-1.822174072265625	-7.852291764661741	0	18.940735	-34.721375	27.055359	215.27484	-106.68598	1.4997767
1448007251967	-1.1636810302734375	6.730194091796875	-1.381805419921875	-7.760944202559589	0	18.640137	-33.972168	27.055359	219.45753	-110.05113	2.424019
1448007252008	0.0669708251953125	6.375518798828125	-3.412261962890625	-8.065845088723627	0	20.289612	-35.17151	26.454163	222.06313	-110.869286	2.4042113
1448007252048	0.3061981201171875	7.272918701171875	-3.45391845703125	-7.907266524444117	0	21.18988	-35.77118	26.15509	223.12079	-110.6617	2.1069908
1448007252088	0.6465911865234375	8.815399169921875	-3.5848388671875	-7.382316293570859	0	22.390747	-35.472107	24.205017	224.94672	-109.46175	1.2735423
1448007252128	0.5823211669921875	10.3424072265625	-5.27490234375	-7.429663726179289	0	23.291016	-36.972046	23.754883	227.20357	-107.06119	0.7275594
1448007252169	1.6356353759765625	11.205291748046875	-3.919281005859375	-6.819687527535487	0	23.590088	-38.771057	22.254944	228.28088	-106.52966	0.82872725
1448007252209	2.0962371826171875	12.43475341796875	-5.202301025390625	-6.75230964458267	0	22.990417	-40.872192	21.954346	230.813	-106.288124	1.8993338
1448007252250	0.5180511474609375	7.032501220703125	-4.83929443359375	-8.160010210595756	0	23.890686	-40.270996	22.105408	235.85931	-108.57937	2.5145147
1448007252292	-4.9187164306640625	13.1798095703125	-0.722442626953125	-7.060939694591606	0	25.090027	-39.971924	21.054077	237.09065	-107.24411	1.0749948
1448007252333	-2.6454620361328125	10.274566650390625	-0.834320068359375	-7.199919247414743	0	24.34082	-41.770935	21.20514	235.87042	-105.213844	0.38527513
1448007252374	-2.1205902099609375	4.80804443359375	-0.618896484375	-8.368351850598161	0	22.540283	-43.121338	21.054077	234.13434	-103.75936	0.7370592
1448007252414	-2.0229949951171875	8.59759521484375	2.50653076171875	-6.7931085064919605	0	22.990417	-42.671204	20.155334	232.1866	-100.882126	-0.18514284
1448007252454	-2.2407989501953125	13.29168701171875	0.912872314453125	-6.347733079175123	0	23.739624	-44.322205	19.554138	229.40352	-98.053665	-2.1495154
1448007252495	-1.5052642822265625	9.05224609375	-0.446319580078125	-7.14189321848626	0	23.590088	-44.621277	18.954468	227.62079	-95.745674	-3.0354052
1448007252535	-2.1777191162109375	8.452392578125	1.129486083984375	-7.085541465918375	0	22.68982	-45.521545	18.655396	225.23871	-93.24772	-3.557895
1448007252575	-0.5293121337890625	9.47833251953125	1.31158447265625	-6.603382108816442	0	22.990417	-47.322083	17.454529	223.30104	-91.25936	-4.401111
1448007252616	0.0324554443359375	10.08294677734375	0.132110595703125	-6.605426337515752	0	22.390747	-45.97168	17.454529	221.69975	-89.670166	-4.8879514
1448007252657	1.0119781494140625	9.705657958984375	-0.134490966796875	-6.553425374868179	0	22.390747	-47.322083	17.304993	219.87813	-88.67732	-5.475712
1448007252697	0.9441375732421875	9.47833251953125	-0.618896484375	-6.67553410985996	0	22.390747	-48.07129	17.454529	218.7507	-87.81887	-6.3455753
1448007252737	-0.0377655029296875	9.45452880859375	-1.13543701171875	-6.9288706357363425	0	22.390747	-47.921753	16.705322	218.34782	-86.94629	-7.4778113
1448007252778	0.2312164306640625	9.7996826171875	0.608184814453125	-6.544839146978324	0	22.990417	-47.921753	16.55426	217.87212	-86.18354	-8.801234
1448007252819	0.3883209228515625	10.413818359375	0.139251708984375	-6.4988226509012215	0	23.890686	-47.621155	17.004395	217.63264	-85.699135	-9.8833475
1448007252859	0.2693023681640625	10.310272216796875	0.15234375	-6.530639326401957	0	23.440552	-47.17102	16.854858	217.6425	-85.628174	-10.6696825
1448007252899	-1.6980743408203125	11.0184326171875	0.46417236328125	-6.67857656024632	0	23.739624	-46.720886	17.304993	217.08896	-85.97053	-11.592158
1448007252942	-1.7956695556640625	11.21600341796875	1.4996337890625	-6.502062566202769	0	22.390747	-47.772217	19.104004	215.4986	-86.89288	-11.288113
1448007252982	-3.0179901123046875	10.529266357421875	1.143768310546875	-6.864654290836748	0	18.940735	-47.17102	22.854614	213.10757	-89.27514	-9.94962
1448007253023	-3.6499786376953125	10.012725830078125	1.158050537109375	-7.064192712689781	0	18.040466	-46.57135	24.354553	211.61635	-91.13449	-9.10818
1448007253063	-4.1117706298828125	10.593536376953125	-2.374420166015625	-7.7799412766193985	0	13.391113	-44.621277	28.704834	206.1748	-97.25664	-6.774708
1448007253104	-0.2103424072265625	10.4566650390625	-1.096160888671875	-6.781676572346985	0	8.740234	-44.021606	30.35431	203.49101	-99.756035	-4.172484
1448007253144	2.4342498779296875	11.65875244140625	-0.605804443359375	-6.134107947459032	0	7.991028	-43.571472	30.804443	203.08357	-100.86396	-2.264982
1448007253184	-2.6442718505859375	7.249114990234375	0.898590087890625	-7.4606602677095335	0	8.2901	-42.071533	33.20465	206.63855	-105.69641	0.578467
1448007253227	-1.1434478759765625	8.43096923828125	-5.98663330078125	-8.666035200646872	0	9.0408325	-38.02185	35.30426	211.19513	-110.43968	-0.039952345
1448007253267	-0.6054840087890625	7.6859130859375	-2.326812744140625	-7.515588537674285	0	9.490967	-36.37085	35.154724	212.03094	-111.65629	0.4280049
1448007253308	-1.1743927001953125	6.45050048828125	-4.31085205078125	-8.824125706542564	0	8.439636	-35.021973	36.8042	214.1208	-114.00561	0.8471383
1448007253348	0.0538787841796875	6.433837890625	-3.686004638671875	-8.321130625460318	0	9.941101	-37.121582	36.054993	214.67197	-114.22305	0.7039404
1448007253388	1.3845062255859375	7.7763671875	-4.503662109375	-7.6485427014764085	0	9.640503	-37.721252	34.555054	215.12675	-112.78091	-0.042586233
1448007253429	1.0107879638671875	9.96392822265625	-4.960693359375	-7.354249530114336	0	9.490967	-38.771057	33.955383	215.64877	-111.38139	-0.81599957
1448007253469	1.2274017333984375	9.296234130859375	-6.530548095703125	-7.808328805053056	0	9.790039	-39.971924	32.154846	216.22183	-110.251465	-1.5610708
1448007253510	-1.2505645751953125	8.605926513671875	-0.89263916015625	-7.264411419599185	0	10.240173	-40.270996	31.254578	218.22632	-108.669014	-1.6275765
1448007253550	0.9381866455078125	10.99462890625	-0.974761962890625	-6.529367992071805	0	9.941101	-42.071533	30.955505	219.1118	-108.19686	-1.0700147
1448007253590	-3.0048980712890625	7.134857177734375	-2.610076904296875	-8.573764973669048	0	9.190369	-40.872192	31.105042	221.33427	-109.93112	-0.25558996
1448007253631	-0.8268585205078125	14.04864501953125	-1.310394287109375	-6.3553115142436925	0	8.740234	-41.3208	30.804443	221.64551	-109.62451	-0.36453307
1448007253671	-2.1408233642578125	7.858489990234375	-1.496063232421875	-7.751945918760365	0	8.439636	-42.071533	29.45404	220.19229	-108.4817	-0.16035599
1448007253711	-3.2369842529296875	8.00250244140625	-2.31610107421875	-8.241538622846434	0	9.0408325	-42.37213	28.85437	219.8779	-107.37895	-0.94077617
1448007253752	-1.6207122802734375	10.052001953125	0.177337646484375	-6.872553763258674	0	8.740234	-42.671204	27.804565	218.49464	-105.5112	-1.6595
1448007253792	-0.4281463623046875	9.443817138671875	-0.422515869140625	-6.875191651232028	0	7.991028	-44.921875	25.55542	217.11586	-102.53387	-1.729788
1448007253832	-1.1755828857421875	7.94775390625	-0.9093017578125	-7.385263744397463	0	7.5408936	-45.07141	25.254822	216.50793	-101.59016	-1.7672178
1448007253873	-0.6530914306640625	8.248870849609375	-1.165191650390625	-7.270739639381795	0	6.491089	-46.57135	24.205017	215.96855	-100.74649	-1.9445815
1448007253913	0.7739410400390625	9.03558349609375	-1.21636962890625	-6.875191651232028	0	8.140564	-47.621155	21.80481	215.0651	-98.467705	-3.086817
1448007253953	0.5085296630859375	9.4140625	-1.196136474609375	-6.85254250420264	0	8.590698	-47.921753	21.054077	215.2337	-96.88867	-4.056953
1448007253994	-0.3007965087890625	9.937744140625	-1.596038818359375	-6.970950371876567	0	9.0408325	-47.47162	20.155334	215.25539	-95.571014	-5.041588
1448007254034	-0.6911773681640625	8.663055419921875	-1.54962158203125	-7.272382868472679	0	9.790039	-48.371887	18.655396	215.48338	-94.10856	-6.743936
1448007254075	-0.6780853271484375	9.429534912109375	-1.25921630859375	-7.069405583016217	0	9.790039	-48.220825	17.604065	214.91231	-93.60978	-7.249278
1448007254115	-0.7947235107421875	8.824920654296875	-1.119964599609375	-7.1778678828101725	0	9.0408325	-49.42169	17.604065	212.95691	-92.44781	-8.272689
1448007254155	-0.0865631103515625	9.271240234375	-1.334197998046875	-7.004729352383204	0	9.640503	-48.82202	16.104126	211.43477	-91.30797	-9.119196
1448007254196	0.0645904541015625	11.707550048828125	0.346343994140625	-6.3254386281198745	0	9.0408325	-49.121094	15.504456	210.16763	-90.135445	-9.680394
1448007254236	0.7084808349609375	9.85205078125	-2.46844482421875	-6.961940654490912	0	8.740234	-49.272156	15.504456	209.76753	-90.04375	-9.954039
1448007254277	0.3002471923828125	10.404296875	0.88787841796875	-6.401835325995119	0	7.2402954	-49.42169	14.904785	208.34254	-90.08733	-10.5433
1448007254317	-1.3672027587890625	10.61376953125	-0.03094482421875	-6.770875712742972	0	6.0409546	-48.67096	15.95459	205.2637	-91.731674	-9.970251
1448007254358	-2.9680023193359375	9.7568359375	-1.33062744140625	-7.47031958516153	0	4.3899536	-48.521423	18.205261	202.86182	-94.881355	-8.633671
1448007254398	-3.2036590576171875	9.731842041015625	-0.636749267578125	-7.379372421914189	0	2.8900146	-46.87195	19.404602	201.54092	-96.66707	-7.7789793
1448007254438	-2.9132537841796875	11.493316650390625	-4.447723388671875	-7.773784347379461	0	-2.659607	-45.220947	21.80481	197.5414	-101.07762	-3.5456824
1448007254479	-0.8816070556640625	10.470947265625	-0.655792236328125	-6.817695857403116	0	-3.2592773	-44.322205	22.705078	200.09476	-102.841354	-0.7673886
1448007254519	-0.9101715087890625	8.746368408203125	-1.567474365234375	-7.302858293237961	0	-3.2592773	-43.121338	23.304749	203.79988	-105.48019	0.16251688
1448007254559	1.0072174072265625	8.3857421875	-1.027130126953125	-6.91422563491974	0	-5.5099487	-41.471863	26.004028	206.26236	-108.21207	2.2624216
1448007254600	-1.6802215576171875	8.47381591796875	-3.814544677734375	-8.080607623824141	0	-5.0598145	-37.87079	27.204895	207.49623	-111.086685	3.6949039
1448007254640	-2.9596710205078125	6.19342041015625	-3.23968505859375	NaN	0	-5.0598145	-36.972046	28.555298	209.61081	-113.796265	3.992772
1448007254681	0.7989349365234375	6.237457275390625	-1.685302734375	-7.493357799637257	0	-5.659485	-36.671448	28.555298	211.10349	-114.95968	4.8221297
1448007254721	0.5632781982421875	6.757568359375	-4.880950927734375	-8.244583473236338	0	-6.2591553	-35.621643	28.2547	211.0845	-114.81151	5.7140303
1448007254761	3.5649261474609375	6.529052734375	-5.254669189453125	-7.606756893689276	0	-6.7092896	-37.121582	27.204895	211.24242	-113.97024	6.37381
1448007254802	1.3714141845703125	9.600921630859375	-5.571258544921875	-7.482578212127129	0	-6.2591553	-38.02185	26.605225	211.79799	-113.0849	5.9320507
1448007254842	2.3437957763671875	8.55712890625	-5.60577392578125	-7.505480542684509	0	-6.4102173	-39.370728	24.655151	213.10915	-111.43179	5.5644298
1448007254882	2.4580535888671875	9.83062744140625	-4.4560546875	-7.007917034251031	0	-6.2591553	-39.52179	23.605347	213.91592	-110.46514	5.5853186
1448007254923	4.1552581787109375	13.1893310546875	-9.801177978515625	-7.060072873812674	0	-9.7091675	-39.071655	23.904419	212.86205	-109.89809	8.6016445
1448007254963	3.0924224853515625	11.026763916015625	-3.1087646484375	-6.488404443235798	0	-9.8602295	-38.02185	23.904419	213.98906	-111.532425	10.205894
1448007255004	1.7903594970703125	9.581878662109375	-3.05877685546875	-6.923292644945576	0	-8.959961	-36.221313	24.205017	215.64975	-112.381355	9.624903
1448007255044	2.0712432861328125	8.908233642578125	-1.474639892578125	-6.723608427495655	0	-7.159424	-38.62152	23.00415	216.87988	-110.78197	6.6982956
1448007255085	-1.9480133056640625	5.361480712890625	-1.11163330078125	-8.289420344703597	0	-4.460144	-39.370728	22.105408	217.27888	-109.25599	4.628142
1448007255125	-4.8544464111328125	10.03057861328125	7.266082763671875	-6.279247598294109	0	-4.309082	-40.42206	18.804932	214.46512	-104.84895	1.3871864
1448007255166	1.2131195068359375	10.6708984375	-9.920196533203125	-8.51161478991614	0	-3.5598755	-40.72113	18.504333	212.2711	-104.523865	0.109628014
1448007255206	-1.3898162841796875	9.9805908203125	3.65625	-6.307025092081495	0	-3.5598755	-40.872192	17.454529	212.44357	-103.58956	-0.26124197
1448007255247	-0.8316192626953125	8.3524169921875	-0.436798095703125	-7.145021589772515	0	-3.8589478	-41.6214	16.104126	210.17717	-101.348976	-2.0407565
1448007255287	-0.3722076416015625	9.798492431640625	-0.97357177734375	-6.899245014330841	0	-3.1097412	-41.171265	15.205383	208.61641	-99.78384	-2.9556956
1448007255327	0.5073394775390625	10.353118896484375	-1.465118408203125	-6.741418118639562	0	-2.5100708	-41.171265	14.604187	208.32693	-99.294365	-3.2054648
1448007255368	-1.0434722900390625	9.12127685546875	-2.7659912109375	-7.501862844814578	0	-2.659607	-41.02173	13.25531	207.02544	-97.5959	-4.104216
1448007255408	1.6046905517578125	9.73779296875	-1.22589111328125	-6.625940884780865	0	-2.5100708	-42.37213	11.604309	206.2714	-96.501366	-4.911832
1448007255448	1.2535858154296875	9.0950927734375	-1.224700927734375	-6.786007730074644	0	-2.0599365	-41.471863	11.454773	205.2931	-95.70717	-5.8742695
1448007255488	0.1895599365234375	11.041046142578125	-1.21160888671875	-6.641320045180393	0	-1.4602661	-41.171265	10.704041	203.87756	-94.92424	-7.030978
1448007255529	0.6239776611328125	9.8330078125	-0.4141845703125	-6.637562148645063	0	-1.7593384	-40.42206	9.805298	201.92525	-94.002075	-8.097535
1448007255569	-0.0710906982421875	10.8280029296875	-0.205902099609375	-6.558368153004478	0	-1.7593384	-41.471863	8.905029	200.91426	-93.58052	-8.525525
1448007255610	-0.6519012451171875	11.803955078125	0.76171875	-6.354966678946354	0	-2.0599365	-40.72113	8.305359	198.62831	-93.08146	-9.163685
1448007255650	-1.0541839599609375	11.919403076171875	-0.99261474609375	-6.664529922787018	0	-2.3590088	-39.52179	9.355164	194.95749	-95.05553	-8.70775
1448007255690	-2.0122833251953125	9.272430419921875	-1.761474609375	-7.461675164242665	0	-4.01001	-37.571716	11.004639	192.25923	-98.837654	-8.172726
1448007255731	-2.4455108642578125	8.117950439453125	-3.040924072265625	-8.184405343699565	0	-4.7592163	-35.17151	13.554382	189.13289	-103.487495	-7.149319
1448007255771	-2.8799285888671875	8.334564208984375	-6.10089111328125	NaN	0	-5.2093506	-34.87091	13.85498	187.52948	-105.496056	-6.528264
1448007255812	-3.4916839599609375	10.2471923828125	-2.355377197265625	-7.708951024221179	0	-5.0598145	-30.970764	14.454651	186.89294	-108.28904	-5.8520727
1448007255852	1.5320892333984375	9.32122802734375	-2.4041748046875	-6.899859135035479	0	-5.659485	-30.522156	15.205383	187.75916	-109.67315	-3.7253504
1448007255892	-1.7492523193359375	7.5335693359375	-3.133758544921875	-8.178546416213615	0	-5.5099487	-28.721619	15.655518	189.72289	-111.25985	-2.124498
1448007255933	-1.4362335205078125	6.89324951171875	-4.640533447265625	-8.903005763660861	0	-5.5099487	-27.520752	16.255188	191.51566	-112.58597	-1.6679091
1448007255973	-1.0565643310546875	8.558319091796875	-3.057586669921875	-7.698480437256864	0	-4.9102783	-27.371216	15.95459	192.66533	-113.262856	-1.7468358
1448007256013	-0.7613983154296875	7.424072265625	-3.50628662109375	-8.029977550208947	0	-4.9102783	-27.520752	16.255188	193.39201	-113.37338	-1.9462517
1448007256054	-1.9230194091796875	8.1905517578125	-3.66815185546875	-8.194340562699644	0	-3.7094116	-27.970886	15.205383	193.61295	-112.87242	-2.005851
1448007256094	0.3157196044921875	7.79302978515625	-3.208740234375	-7.593003569917624	0	-3.7094116	-28.42102	13.85498	193.5554	-111.649345	-2.399431
1448007256134	0.0788726806640625	8.36669921875	-4.316802978515625	-7.774662766496357	0	-3.1097412	-28.572083	12.805176	194.10164	-110.637054	-2.7971847
1448007256174	-0.3043670654296875	10.16387939453125	-4.640533447265625	-7.522091544809706	0	-2.809143	-27.520752	12.054443	195.23264	-109.95619	-3.1931803
1448007256215	0.8036956787109375	10.403106689453125	-4.37750244140625	-7.193307072148663	0	-2.3590088	-27.82135	11.755371	196.74243	-109.67464	-2.6458135
1448007256255	0.1395721435546875	8.47381591796875	-5.0416259765625	-7.916689397627247	0	-3.4103394	-28.721619	11.305237	199.07703	-109.64466	-1.3516772
1448007256295	1.2940521240234375	8.18341064453125	-4.39654541015625	-7.632060408149936	0	-1.9104004	-26.771545	11.004639	200.12662	-110.179985	-0.8800217
1448007256335	1.2166900634765625	8.48095703125	-4.909515380859375	-7.618419999664747	0	-1.4602661	-27.82135	10.404968	202.39362	-110.30017	-0.94354016
1448007256376	-0.0984649658203125	13.67254638671875	-2.89215087890625	-6.53827771754495	0	-1.6098022	-28.871155	8.604431	203.72913	-108.734276	-0.41721562
1448007256416	-2.6430816650390625	7.475250244140625	-1.24969482421875	-7.9138576100053095	0	-1.7593384	-29.621887	6.954956	202.91138	-105.39305	1.172494
1448007256456	-1.4945526123046875	6.947998046875	-2.569610595703125	-8.108414250776086	0	-0.40893555	-29.171753	6.654358	202.34492	-105.061844	-0.40247563
1448007256496	-2.8715972900390625	12.797760009765625	2.961181640625	-6.216705243833523	0	1.84021	-29.621887	5.7540894	197.779	-102.440994	-3.296259
1448007256537	-2.1443939208984375	12.231231689453125	1.774566650390625	-6.362561031151751	0	1.2405396	-30.522156	4.4052124	195.8027	-101.11854	-4.394751
1448007256577	-1.5147857666015625	8.74041748046875	-2.248260498046875	-7.575597710485193	0	2.2903442	-30.221558	3.5049438	196.15906	-99.69424	-4.9512467
1448007256618	-2.3752899169921875	8.646392822265625	0.105926513671875	-7.2813219125519435	0	2.7404785	-30.371094	2.005005	196.45563	-96.47888	-5.6986175
1448007256658	-1.6016693115234375	9.172454833984375	-0.41180419921875	-7.130972723408174	0	4.2404175	-31.871033	1.1047363	196.48457	-95.19997	-6.859131
1448007256698	-0.9661102294921875	9.439056396484375	-1.2520751953125	-7.119432165330998	0	4.840088	-31.721497	0.20446777	196.80115	-93.90303	-7.8349056
1448007256742	-1.4766998291015625	9.408111572265625	-1.098541259765625	-7.192624008641541	0	5.4397583	-31.271362	-0.99487305	197.05945	-93.15486	-8.161332
1448007256782	-0.4519500732421875	9.67352294921875	0.485595703125	-6.690967066051977	0	5.7403564	-31.121826	-2.3452759	197.65974	-90.759705	-8.951405
1448007256822	-1.1803436279296875	10.27813720703125	-0.879547119140625	-6.93985158760645	0	6.491089	-33.37097	-2.9449463	198.24565	-89.73972	-9.706534
1448007256863	-1.2898406982421875	10.36859130859375	-0.084503173828125	-6.791726490170203	0	7.2402954	-32.321167	-3.2455444	198.24191	-89.39106	-10.153326
1448007256903	-0.1413116455078125	10.036529541015625	-0.81884765625	-6.793898514744978	0	8.140564	-32.022095	-3.2455444	197.2617	-89.05662	-11.094713
1448007256943	-0.9232635498046875	10.5947265625	-1.0235595703125	-6.865868213117215	0	8.140564	-33.0719	-3.5446167	196.66594	-89.23599	-11.207375
1448007256985	-0.9756317138671875	10.72088623046875	0.505828857421875	-6.560934038416816	0	8.8897705	-33.37097	-3.0944824	196.18213	-89.541756	-11.143079
1448007257025	-1.4314727783203125	10.867279052734375	-0.7093505859375	-6.85254250420264	0	8.740234	-35.021973	-1.2954712	193.6679	-92.573425	-10.370704
1448007257067	-2.9203948974609375	10.04486083984375	-0.14520263671875	-7.164770462413582	0	7.991028	-35.621643	1.7044067	191.78801	-95.93789	-9.681105
1448007257108	-3.1191558837890625	9.719940185546875	-2.150665283203125	-7.697069479112784	0	8.140564	-34.721375	2.6046753	189.86769	-99.28785	-8.513611
1448007257149	-1.6076202392578125	9.537841796875	-3.709808349609375	-7.752235570788908	0	6.640625	-36.52191	5.455017	189.12444	-102.10187	-6.485498
1448007257190	-0.4638519287109375	10.048431396484375	-2.7183837890625	-7.186257335631284	0	6.9396973	-35.621643	6.0546875	189.21367	-104.49185	-4.058843
1448007257230	-1.3624420166015625	8.90704345703125	-0.79266357421875	-7.208150872883801	0	5.8898926	-34.87091	8.305359	189.30197	-106.30614	-2.5497928
1448007257270	-0.9815826416015625	8.125091552734375	-2.900482177734375	-7.746739147078513	0	4.6905518	-36.37085	9.654236	190.27356	-108.43539	-1.5023855
1448007257311	-0.3246002197265625	7.966796875	-1.760284423828125	-7.381334605977045	0	4.840088	-37.42218	11.305237	193.53017	-111.49191	0.019914275
1448007257351	0.0086517333984375	7.218170166015625	-2.698150634765625	-7.678532504677438	0	4.5410156	-36.52191	11.755371	194.99055	-112.17846	0.60105014
1448007257391	-0.1413116455078125	6.287445068359375	-3.494384765625	-8.1781809331666	0	4.3899536	-37.42218	11.755371	198.36519	-113.068855	1.21763
1448007257431	1.1762237548828125	7.31219482421875	-4.827392578125	-7.893219222168111	0	4.0908813	-38.62152	10.704041	203.04147	-111.951965	1.1463146
1448007257472	1.4380645751953125	8.153656005859375	-4.72503662109375	-7.600543799455476	0	4.989624	-38.320923	10.255432	204.46393	-111.043625	0.9830116
1448007257512	0.5894622802734375	10.545928955078125	-4.617919921875	-7.253666136094285	0	5.290222	-40.270996	8.905029	207.31252	-109.08436	0.633145
1448007257552	1.1286163330078125	9.555694580078125	-5.221343994140625	-7.469300935065152	0	4.840088	-40.12146	9.805298	212.64426	-108.4739	1.5235832
1448007257593	1.4356842041015625	7.79779052734375	-6.849517822265625	-8.262593228907434	0	4.3899536	-40.270996	9.954834	214.09222	-109.085754	1.9835721
1448007257633	-2.3740997314453125	13.930816650390625	-3.057586669921875	-6.891273217455128	0	5.290222	-39.82086	10.554504	218.8724	-109.45084	1.6215087
1448007257673	-3.5583343505859375	13.3607177734375	1.55438232421875	-6.436619918891164	0	4.2404175	-40.571594	10.704041	217.15175	-107.89633	2.0533776
1448007257713	-3.3417205810546875	7.539520263671875	0.5855712890625	-7.619508101683953	0	4.0908813	-41.471863	10.855103	216.1328	-107.09976	2.6222563
1448007257754	-3.3226776123046875	7.72161865234375	2.131622314453125	-7.251103305716834	0	4.6905518	-41.3208	10.704041	213.18158	-104.010086	1.6000657
1448007257794	-4.5033416748046875	14.365234375	2.3470458984375	-6.312470838301364	0	5.140686	-42.071533	9.5047	210.29872	-101.76583	0.33775988
1448007257834	0.2847747802734375	7.86920166015625	-0.21185302734375	-6.98842267891356	0	4.989624	-42.82074	8.154297	204.41257	-97.51629	-1.3001581
1448007257875	-0.8649444580078125	8.346466064453125	1.205657958984375	-6.859197827674396	0	5.140686	-43.72101	6.954956	202.35417	-94.62058	-1.479907
1448007257915	-0.5031280517578125	9.772308349609375	0.9188232421875	-6.614734786674245	0	5.290222	-42.521667	6.0546875	201.09024	-92.64566	-2.1982021
1448007257955	0.9239044189453125	9.860382080078125	0.141632080078125	-6.50116227118078	0	5.5908203	-43.270874	6.2042236	200.8427	-90.91325	-2.9970667
1448007257996	0.6168365478515625	9.253387451171875	-0.182098388671875	-6.694024601659975	0	5.290222	-44.171143	5.604553	200.42415	-89.4695	-3.8317227
1448007258036	-0.4067230224609375	9.236724853515625	0.82122802734375	-6.6999571401916125	0	6.1904907	-42.9718	5.154419	200.36105	-88.27342	-4.8896823
1448007258077	0.1490936279296875	9.819915771484375	-0.829559326171875	-6.7834476596039375	0	6.491089	-42.9718	5.455017	200.53065	-87.901146	-5.5495133
1448007258117	-1.0613250732421875	9.674713134765625	0.03094482421875	-6.86647536220959	0	6.491089	-42.671204	5.455017	200.7571	-86.972885	-7.3732977
1448007258157	1.2500152587890625	10.528076171875	0.7760009765625	-6.263424530562088	0	5.7403564	-41.770935	5.154419	199.61351	-86.221016	-8.139764
1448007258197	0.4442596435546875	10.3233642578125	-0.71649169921875	-6.636247937192394	0	6.340027	-42.22107	6.0546875	199.19366	-85.703575	-8.877771
1448007258238	-0.9185028076171875	10.629241943359375	-0.570098876953125	-6.783250820895962	0	6.790161	-41.921997	6.0546875	198.29486	-85.58561	-9.876078
1448007258278	-0.7316436767578125	11.131500244140625	0.503448486328125	-6.504584698141006	0	6.1904907	-40.872192	6.954956	196.72379	-85.93477	-10.214084
1448007258318	-1.0256195068359375	11.709930419921875	1.98284912109375	-6.247504604512589	0	4.6905518	-38.62152	9.204102	194.62988	-87.21899	-9.230234
1448007258359	-2.7501983642578125	9.93536376953125	1.13543701171875	-6.9220545562615605	0	3.7902832	-37.721252	10.855103	192.1553	-90.272125	-7.6984324
1448007258400	-4.0296478271484375	10.88751220703125	-2.00665283203125	-7.604053394851413	0	1.84021	-33.37097	14.904785	188.93724	-94.45061	-6.2494044
1448007258440	-2.0372772216796875	10.122222900390625	-1.45440673828125	-7.2316167106504	0	1.5396118	-33.67157	15.205383	186.08598	-97.687195	-4.3490214
1448007258482	1.2761993408203125	10.905364990234375	-1.552001953125	-6.546299035682489	0	-0.2593994	-30.221558	17.004395	184.79695	-100.15331	-1.4229046
1448007258522	-0.9327850341796875	8.601165771484375	-0.47607421875	-6.903956593531133	0	1.0910034	-28.721619	18.205261	187.00856	-102.97402	0.9800187
1448007258564	-1.9039764404296875	7.989410400390625	-0.605804443359375	-7.465739150525695	0	1.9897461	-26.470947	18.655396	191.28157	-106.66375	1.7986976
1448007258605	-1.1720123291015625	7.3193359375	-2.7421875	-7.961298911180498	0	4.5410156	-24.671936	19.554138	198.18398	-111.999916	1.9800129
1448007258646	-0.9970550537109375	6.75994873046875	-3.2611083984375	-8.224896716093593	0	4.6905518	-22.721863	19.255066	200.30284	-113.15984	1.8863666
1448007258686	-0.0092010498046875	6.26959228515625	-3.913330078125	-8.274587873015829	0	7.839966	-22.271729	18.0542	204.49564	-114.150475	1.1498379
1448007258726	0.2657318115234375	6.871826171875	-4.48699951171875	-8.178546416213615	0	8.140564	-22.5708	16.854858	205.50702	-113.79256	0.77799517
1448007258767	0.2371673583984375	7.641876220703125	-4.55126953125	-7.9823812499999995	0	8.2901	-22.5708	15.805054	207.07217	-112.25238	-0.05667009
1448007258807	-0.3138885498046875	11.083892822265625	-4.823822021484375	-7.368120504294415	0	10.389709	-23.020935	14.454651	208.09021	-110.60673	-0.78897417
1448007258848	0.8834381103515625	11.13031005859375	-5.047576904296875	-6.977253211946207	0	10.389709	-22.871399	14.154053	210.16321	-110.324005	-0.9898274
1448007258888	0.4073638916015625	4.60809326171875	-6.302032470703125	NaN	0	11.140442	-23.171997	13.554382	213.37817	-112.4274	0.7102802
1448007258929	-3.3726654052734375	10.638763427734375	-4.05377197265625	-8.014303693636377	0	11.740112	-23.921204	12.954712	214.08401	-112.457085	-0.035942163
1448007258969	-0.8494720458984375	17.420440673828125	-1.962615966796875	-5.984512525708913	0	13.090515	-24.520874	12.054443	212.94017	-110.82722	-1.3365065
1448007259009	-0.5888214111328125	6.285064697265625	0.1285400390625	-7.393141211208421	0	13.090515	-25.72174	11.604309	210.85669	-107.87774	0.8665902
1448007259049	-0.1841583251953125	3.628570556640625	-0.386810302734375	-8.05800000894689	0	14.440918	-27.371216	10.255432	210.56168	-105.38954	1.0935806
1448007259090	-2.9430084228515625	11.8563232421875	1.807891845703125	-6.532274624439553	0	16.090393	-26.470947	9.805298	208.29497	-101.93151	-1.6507962
1448007259130	-0.4686126708984375	10.550689697265625	-0.8140869140625	-6.762262615230584	0	17.289734	-27.371216	8.905029	207.90007	-99.30128	-4.0063095
1448007259170	-1.1981964111328125	7.803741455078125	0.05712890625	-7.2253844045498035	0	18.040466	-27.82135	8.154297	208.18726	-97.00952	-4.214034
1448007259211	-0.7768707275390625	8.924896240234375	0.27374267578125	-6.904571711289401	0	18.4906	-29.621887	6.954956	208.5555	-94.31585	-4.7580357
1448007259251	-0.0151519775390625	9.436676025390625	-0.010711669921875	-6.738895259003942	0	19.090271	-29.32129	6.3552856	209.98758	-92.365715	-5.1745853
1448007259292	-0.1674957275390625	9.7330322265625	-0.238037109375	-6.7525044891083645	0	22.239685	-30.072021	4.7042847	211.1648	-90.83079	-6.3005204
1448007259333	0.3490447998046875	9.32598876953125	-0.25469970703125	-6.737343760728882	0	23.139954	-29.92096	3.5049438	212.38246	-89.32354	-7.0190864
1448007259373	-0.7161712646484375	9.434295654296875	-1.336578369140625	-7.089699924452904	0	24.490356	-30.522156	2.7542114	214.38239	-87.88407	-8.002623
1448007259414	-0.8982696533203125	10.369781494140625	-0.003570556640625	-6.7295980038713505	0	26.139832	-29.771423	2.154541	215.96353	-86.71578	-9.363973
1448007259454	0.2312164306640625	10.560211181640625	-0.35467529296875	-6.5760037207760025	0	27.790833	-30.970764	2.6046753	217.05705	-85.9782	-10.5322275
1448007259494	0.8870086669921875	10.61376953125	-0.046417236328125	-6.422170807076315	0	29.440308	-31.271362	2.9052734	218.3311	-85.87589	-11.291752
1448007259535	-1.2469940185546875	11.73492431640625	0.643890380859375	-6.470161677670193	0	30.79071	-32.321167	3.2043457	219.20282	-86.25848	-11.571563
1448007259575	-2.0194244384765625	11.270751953125	1.817413330078125	-6.308385733869663	0	31.089783	-35.021973	5.455017	218.73479	-87.44368	-10.455985
1448007259616	-2.5193023681640625	10.498321533203125	1.688873291015625	-6.697276527594035	0	30.490112	-37.721252	9.054565	217.36649	-90.378265	-8.386254
1448007259656	-3.9653778076171875	11.390960693359375	-1.819793701171875	-7.438945214231957	0	29.440308	-39.22119	13.705444	214.23332	-96.53482	-5.645063
1448007259697	-2.3014984130859375	11.231475830078125	-0.929534912109375	-6.978094651784654	0	27.790833	-41.770935	17.755127	213.51988	-98.11281	-4.309404
1448007259737	1.5166168212890625	10.641143798828125	0.2713623046875	-6.281103875366661	0	24.94049	-44.322205	21.20514	213.03188	-101.85095	0.98817074
1448007259777	-1.1791534423828125	8.03106689453125	0.0428466796875	-7.180812473973582	0	24.490356	-44.47174	23.00415	214.39438	-103.21434	2.305507
1448007259817	-1.4124298095703125	7.068206787109375	-0.451080322265625	-7.525219572435706	0	25.241089	-44.621277	24.954224	221.63466	-109.5364	3.2920792
1448007259858	-1.2005767822265625	6.3814697265625	-3.57769775390625	-8.540426555945162	0	26.741028	-44.770813	25.854492	224.5438	-111.72541	3.040109
1448007259898	-0.6649932861328125	6.04345703125	-3.01116943359375	-8.267998585882802	0	27.940369	-44.021606	26.904297	231.28479	-115.21291	2.3336496
1448007259940	-0.3210296630859375	5.630462646484375	-3.37298583984375	-8.415037157885175	0	28.691101	-46.421814	27.204895	232.76968	-115.361916	2.0665052
1448007259980	0.3133392333984375	7.25506591796875	-4.300140380859375	-7.998765723715856	0	30.19104	-47.621155	26.75476	235.51715	-113.25583	1.0564663
1448007260020	0.6025543212890625	9.728271484375	-5.2510986328125	-7.552774990632244	0	30.940247	-49.720764	26.304626	236.95395	-110.91459	0.2216863
1448007260061	0.6323089599609375	12.0943603515625	-4.92974853515625	-7.014303315124414	0	31.990051	-52.722168	26.15509	237.80212	-110.104324	-0.11385079
1448007260101	2.0200653076171875	10.950592041015625	-7.236328125	-7.411954050463239	0	31.539917	-53.471375	27.505493	241.77437	-110.85218	1.1002728
1448007260141	0.8905792236328125	5.980377197265625	-7.206573486328125	NaN	0	31.089783	-54.222107	29.904175	245.37558	-112.511765	2.0331814
1448007260182	-4.5818939208984375	12.70849609375	-1.90667724609375	-7.312622268191271	0	31.840515	-54.371643	31.105042	246.44957	-112.091125	1.1794436
1448007260222	0.2478790283203125	11.119598388671875	3.521759033203125	-5.947942662246968	0	30.490112	-53.92151	31.555176	244.61635	-109.216896	0.99416
1448007260262	-2.8323211669921875	3.659515380859375	-4.085906982421875	NaN	0	28.691101	-57.37152	32.154846	242.82867	-107.2731	1.970584
1448007260303	-2.0955963134765625	2.431243896484375	-0.915252685546875	NaN	0	28.54004	-57.221985	31.404114	242.55307	-106.37122	1.4091724
1448007260343	-1.0113372802734375	15.504241943359375	1.698394775390625	-5.782758621605896	0	29.589844	-58.421326	30.35431	236.80132	-100.33586	-2.275061
1448007260384	-1.3184051513671875	8.10723876953125	-0.662933349609375	-7.331544390815695	0	30.039978	-58.87146	30.055237	235.46753	-98.05924	-3.351701
1448007260425	-1.5147857666015625	7.115814208984375	-0.203521728515625	-7.523655022880602	0	28.691101	-59.921265	29.304504	234.77357	-96.62401	-3.37606
1448007260465	0.5478057861328125	9.12127685546875	0.448699951171875	-6.625753792970581	0	29.13971	-60.520935	28.404236	232.52194	-93.29258	-4.657358
1448007260505	0.4216461181640625	9.56402587890625	-0.232086181640625	-6.619399205985417	0	28.691101	-61.271667	28.2547	232.09119	-92.39461	-5.0139036
1448007260546	0.5966033935546875	9.362884521484375	-0.8045654296875	-6.780889755222493	0	27.940369	-62.020874	27.954102	230.39984	-90.19866	-6.075954
1448007260586	0.2978668212890625	9.41644287109375	-0.64031982421875	-6.794293596566899	0	28.691101	-62.171936	27.505493	229.78595	-88.81945	-7.178462
1448007260626	-0.8578033447265625	10.28289794921875	-0.37371826171875	-6.798049461489231	0	28.240967	-62.020874	27.65503	228.94934	-87.53126	-8.693071
1448007260667	0.4752044677734375	10.326934814453125	0.167816162109375	-6.49450769386843	0	28.840637	-61.871338	28.105164	228.0718	-86.76786	-10.027816
1448007260708	2.2390594482421875	11.1422119140625	0.239227294921875	-6.116004024113915	0	28.089905	-61.7218	28.105164	227.32637	-86.46097	-10.973767
1448007260748	-0.7637786865234375	12.05865478515625	-0.022613525390625	-6.4491809654971295	0	27.790833	-62.020874	28.704834	227.01898	-86.4222	-11.497237
1448007260789	-2.8085174560546875	12.31097412109375	1.723388671875	-6.456100733187057	0	22.990417	-60.3714	31.105042	225.91475	-86.92358	-10.787129
1448007260829	-3.1084442138671875	10.450714111328125	1.38775634765625	-6.851938218151325	0	17.590332	-60.221863	34.854126	223.19942	-89.12701	-9.173752
1448007260870	-5.2888641357421875	11.13983154296875	-3.100433349609375	-8.148126588209148	0	12.640381	-55.722046	39.505005	217.35866	-95.545105	-6.394736
1448007260910	-4.9258575439453125	10.9755859375	-1.73052978515625	-7.728331824715964	0	7.5408936	-52.571106	42.355347	215.40244	-97.54731	-5.5215755
1448007260950	0.4490203857421875	9.379547119140625	-2.607696533203125	-7.119432165330998	0	0.7904053	-51.5213	43.704224	211.12381	-100.60414	-2.5656266
1448007260992	0.7501373291015625	8.83563232421875	-1.04736328125	-6.884544837606532	0	-0.55999756	-45.220947	45.954895	210.70245	-105.16391	2.057638
1448007261033	-0.4602813720703125	7.65972900390625	-1.317535400390625	-7.381334605977045	0	-0.2593994	-40.571594	48.054504	212.23763	-107.21637	2.772474
1448007261073	-1.1279754638671875	6.637359619140625	-2.602935791015625	-8.101769109777216	0	2.2903442	-39.370728	48.654175	216.04874	-111.32937	3.15086
1448007261114	-0.7006988525390625	6.232696533203125	-2.42559814453125	-8.044101904644203	0	3.340149	-31.871033	49.10431	221.12094	-115.477356	2.890695
1448007261154	-0.3257904052734375	5.0294189453125	-3.77288818359375	-8.841851143330393	0	4.5410156	-31.271362	48.654175	222.1724	-115.95035	2.8265393
1448007261194	0.2716827392578125	6.205322265625	-5.05828857421875	-8.61550116671031	0	4.2404175	-34.27124	47.154236	223.52454	-114.60079	2.200957
1448007261235	0.2383575439453125	7.47406005859375	-6.31988525390625	-8.626543921403387	0	4.5410156	-36.52191	46.10443	223.58263	-113.21142	1.8492278
1448007261275	2.6758575439453125	14.86749267578125	-3.99664306640625	-6.126014835475164	0	3.489685	-36.221313	44.154358	224.28177	-109.83711	1.4829483
1448007261315	2.8460540771484375	13.05364990234375	-5.437957763671875	-6.572137723852647	0	3.1906128	-33.821106	44.454956	225.01538	-110.15054	2.1090803
1448007261355	0.2264556884765625	4.883026123046875	-7.42437744140625	NaN	0	3.340149	-33.67157	44.30542	229.0188	-112.61964	3.8240373
1448007261396	-5.5221405029296875	13.2940673828125	-0.448699951171875	-7.100453860429755	0	2.7404785	-32.321167	43.25409	228.51137	-111.784065	2.4324796
1448007261436	-0.2377166748046875	12.28955078125	0.365386962890625	-6.2827922485277465	0	1.6906738	-32.7713	42.65442	225.52658	-110.01849	1.5209049
1448007261476	-1.0006256103515625	6.027984619140625	-2.23516845703125	-8.135615095293254	0	0.03967285	-32.17163	41.45508	224.29265	-109.52255	2.0679626
1448007261517	-0.9899139404296875	7.90252685546875	3.418212890625	-6.5924397977599085	0	-0.7095337	-35.021973	40.104675	222.09885	-105.64335	1.420374
1448007261557	-1.9813385009765625	14.1414794921875	0.276123046875	-6.280091239471261	0	-0.8590698	-36.52191	37.704468	218.49225	-101.78235	-1.1699611
1448007261598	-2.2122344970703125	7.8001708984375	-0.695068359375	-7.594617169598238	0	-1.3092041	-38.471985	35.455322	216.59608	-99.46186	-2.7492101
1448007261638	-1.8135223388671875	8.284576416015625	1.4853515625	-6.9858898696164395	0	-3.4103394	-39.370728	35.005188	213.50172	-96.37283	-3.449016
1448007261679	0.3990325927734375	9.29742431640625	0.685546875	-6.5844883035841715	0	-2.5100708	-41.171265	33.20465	212.00626	-93.994446	-4.596512
1448007261719	-0.1067962646484375	9.784210205078125	-0.824798583984375	-6.831265505116221	0	-2.659607	-41.471863	32.455444	210.76173	-92.061035	-5.3974347
1448007261760	0.4180755615234375	9.174835205078125	-0.748626708984375	-6.83266589554893	0	-3.2592773	-41.921997	31.254578	208.47308	-89.824234	-6.6330733
1448007261800	0.5537567138671875	9.32122802734375	-0.99261474609375	-6.8262694822357055	0	-3.2592773	-43.571472	30.804443	207.82375	-89.07993	-7.2312536
1448007261840	-0.3733978271484375	10.467376708984375	-0.270172119140625	-6.672304742259383	0	-3.7094116	-42.82074	29.304504	205.99208	-87.73484	-8.665722
1448007261880	1.7760772705078125	10.248382568359375	0.14520263671875	-6.318095667827551	0	-3.7094116	-42.37213	29.754639	204.96573	-86.89612	-9.883563
1448007261921	1.6320648193359375	10.93511962890625	-0.3570556640625	-6.312300530266518	0	-3.8589478	-40.872192	29.754639	204.43439	-86.604706	-10.578502
1448007261961	-2.5454864501953125	11.57781982421875	0.6046142578125	-6.702256650459563	0	-7.609558	-38.771057	31.254578	202.32123	-87.18362	-10.603699
1448007262001	-2.3610076904296875	12.165771484375	1.0426025390625	-6.513065981197732	0	-8.2092285	-38.62152	31.404114	200.85759	-87.81665	-9.909698
1448007262042	-3.3131561279296875	9.69970703125	0.48797607421875	-7.184668082970295	0	-11.659241	-32.621765	34.405518	195.10884	-92.818054	-7.145731
1448007262082	-4.8853912353515625	10.507843017578125	-1.77337646484375	-7.8446939580645525	0	-14.360046	-28.42102	35.60486	193.76547	-95.10016	-6.442361
1448007262122	0.0491180419921875	10.136505126953125	-1.981658935546875	-7.1573473829944145	0	-16.009521	-25.12207	36.20453	189.71631	-98.69502	-4.4121523
1448007262163	1.3868865966796875	10.736358642578125	-1.57818603515625	-6.559284307908828	0	-18.10913	-20.471191	36.8042	188.08908	-100.90668	-1.1524407
1448007262203	-0.9744415283203125	7.88824462890625	-0.122589111328125	-7.200604223092866	0	-16.90979	-15.071106	38.154602	189.91025	-104.99653	2.9535997
1448007262243	-0.9673004150390625	7.013458251953125	-1.412750244140625	-7.654064845171295	0	-14.959717	-10.571289	39.05487	191.59357	-106.929726	3.3473709
1448007262284	-1.1565399169921875	6.818267822265625	-2.52081298828125	-8.034337345371124	0	-11.659241	-5.4718018	39.95514	196.79662	-112.26538	3.3342452
1448007262324	-1.0363311767578125	6.45050048828125	-2.52081298828125	-8.034337345371124	0	-11.209106	-2.770996	39.65454	196.79662	-112.26538	3.3342452
1448007262365	0.0991058349609375	5.685211181640625	-3.9276123046875	-8.443990477094019	0	-7.609558	-0.97198486	39.95514	200.73424	-114.37564	2.7542214
1448007262405	0.3264312744140625	6.701629638671875	-4.761932373046875	-8.301233420047108	0	-7.609558	-1.7211914	39.204407	201.14313	-112.65646	1.9874159
1448007262446	0.3002471923828125	7.927520751953125	-5.897369384765625	-8.376651039959707	0	-8.059692	-1.2710571	39.204407	200.96497	-111.306595	1.5106484
1448007262486	1.1083831787109375	15.31500244140625	-3.616973876953125	-6.227995279838234	0	-7.460022	-0.97198486	38.754272	200.87706	-108.109924	0.93009496
1448007262527	1.6844329833984375	9.82586669921875	-7.001861572265625	-7.683291706239633	0	-4.460144	2.7786255	37.854004	202.72998	-109.246445	2.5980017
1448007262567	0.4882965087890625	8.01678466796875	-6.149688720703125	-8.27187121091227	0	-3.2592773	7.1289063	36.505127	203.90742	-111.40972	3.4143846
1448007262607	-3.0417938232421875	13.936767578125	-1.723388671875	-6.7781375051013395	0	-4.60968	7.2784424	35.60486	202.79482	-111.11034	2.076247
1448007262648	-0.6947479248046875	8.4285888671875	1.410369873046875	-6.782660381649513	0	-5.5099487	7.5790405	34.555054	199.98586	-109.019035	2.495267
1448007262688	-1.3433990478515625	5.937530517578125	-0.99261474609375	-7.908833754217128	0	-5.0598145	6.0791016	34.10492	197.96074	-106.660736	2.5383084
1448007262729	-0.9803924560546875	7.16937255859375	2.774322509765625	-6.812722478740206	0	-5.659485	5.4779053	33.50525	196.83109	-105.02746	1.7629253
1448007262769	-1.9265899658203125	10.72564697265625	-1.657928466796875	-7.134310992418847	0	-8.2092285	4.878235	33.50525	190.55154	-99.73368	-1.1893759
1448007262809	-0.9839630126953125	8.20245361328125	0.50701904296875	-7.02711989689534	0	-8.360291	2.9281616	32.60498	188.05893	-96.971855	-2.1345432
1448007262849	-0.9399261474609375	8.6475830078125	0.555816650390625	-6.931974196396652	0	-8.959961	3.0792236	32.60498	186.04808	-94.16879	-2.9721348
1448007262890	0.8025054931640625	9.66162109375	-0.224945068359375	-6.606727890281443	0	-8.2092285	2.027893	31.854248	185.41057	-91.98765	-3.8937514
1448007262930	0.4692535400390625	9.515228271484375	-0.599853515625	-6.743165930871298	0	-8.509827	3.2287598	32.00531	184.68884	-90.22826	-4.607873
1448007262970	1.0774383544921875	9.25457763671875	-0.658172607421875	-6.696319725846388	0	-7.9101563	4.1290283	31.704712	184.23747	-88.59967	-5.398332
1448007263010	-0.1615447998046875	9.76873779296875	-0.900970458984375	-6.855969129460669	0	-8.2092285	5.6289673	31.704712	183.90384	-86.96984	-6.4585457
1448007263051	-0.4305267333984375	10.310272216796875	0.065460205078125	-6.652997981913925	0	-7.609558	5.4779053	30.804443	183.49223	-85.65892	-7.9398317
1448007263091	0.9822235107421875	10.4423828125	0.384429931640625	-6.370172166495735	0	-7.9101563	8.178711	29.754639	182.65968	-84.99697	-9.1303425
1448007263131	0.4537811279296875	11.24932861328125	-0.417755126953125	-6.447231813233653	0	-7.609558	10.578918	30.055237	181.98517	-84.87934	-9.738662
1448007263172	-1.9015960693359375	11.8848876953125	0.884307861328125	-6.509995764228789	0	-6.8603516	12.37793	28.704834	180.88771	-85.28381	-9.800798
1448007263212	-2.0253753662109375	12.343109130859375	1.984039306640625	-6.299211645213911	0	-4.9102783	16.879272	27.505493	178.82324	-86.81642	-8.400978
1448007263252	-3.2108001708984375	9.68780517578125	2.122100830078125	-6.874176798113727	0	-3.5598755	22.879028	23.904419	176.4419	-90.308266	-6.6440773
1448007263292	-5.6042633056640625	10.676849365234375	-1.69482421875	-7.968731168766303	0	-2.3590088	23.928833	20.904541	172.87073	-95.254814	-5.383026
1448007263333	1.1119537353515625	11.01129150390625	-3.233734130859375	-6.825071682442301	0	-1.3092041	25.428772	19.404602	169.21106	-98.91023	-2.8280041
1448007263374	1.6558685302734375	11.257659912109375	-0.562957763671875	-6.292262127980444	0	1.84021	24.978638	17.604065	167.88666	-101.870544	1.038597
1448007263414	-0.5912017822265625	7.001556396484375	-0.570098876953125	-7.3899378934355155	0	9.941101	24.67804	12.504578	172.60992	-107.63057	4.6271605
1448007263454	-1.5969085693359375	6.3291015625	-2.386322021484375	-8.274976360955574	0	11.889648	25.279236	10.554504	174.98218	-110.12548	4.665056
1448007263494	-1.0732269287109375	6.84326171875	-3.833587646484375	-8.415037157885175	0	17.590332	22.57843	5.604553	181.56122	-115.88951	4.024844
1448007263535	-0.6971282958984375	6.05535888671875	-3.7371826171875	-8.53339617749835	0	17.89093	21.678162	4.4052124	183.34071	-116.86442	3.8412306
1448007263575	0.9857940673828125	5.4197998046875	-5.357025146484375	-8.782603551966151	0	21.18988	20.028687	2.154541	187.07861	-116.63233	3.2798464
1448007263615	1.6677703857421875	6.10772705078125	-5.54864501953125	-8.314335808580736	0	22.239685	19.728088	1.5548706	187.62662	-115.716286	2.9717507
1448007263656	1.7415618896484375	11.861083984375	-4.138275146484375	-6.730178259155766	0	25.84076	19.277954	-0.8453369	190.06973	-111.43621	1.6272889
1448007263696	0.8370208740234375	14.211700439453125	-4.707183837890625	-6.590773904641928	0	26.290894	16.879272	-1.5945435	191.21468	-110.74828	1.4166784
1448007263736	-0.8708953857421875	8.60235595703125	-7.316070556640625	-9.162092424677228	0	32.440186	10.877991	-5.645752	195.97337	-111.90251	2.7923784
1448007263777	-2.5883331298828125	9.317657470703125	-4.581024169921875	-8.340891921664332	0	32.89032	8.778381	-6.3949585	196.51985	-112.683105	3.0184355
1448007263817	0.2752532958984375	12.421661376953125	1.198516845703125	-6.078942354969453	0	34.840393	5.4779053	-5.795288	196.35541	-112.0542	1.3639113
1448007263858	0.4573516845703125	11.33978271484375	0.291595458984375	-6.329714920162238	0	36.039734	4.5791626	-5.1956177	195.53256	-110.50288	1.7800237
1448007263898	-0.7268829345703125	6.7432861328125	1.30206298828125	-7.101333620043409	0	37.390137	0.6790161	-5.0445557	196.49721	-106.41995	1.4581429
1448007263939	-1.9587249755859375	11.669464111328125	-0.72601318359375	-6.809146755635972	0	38.43994	0.5279541	-5.1956177	196.0431	-103.124115	-0.6568515
1448007263979	-1.2672271728515625	9.141510009765625	-0.489166259765625	-7.089042902688439	0	40.84015	-0.6713867	-5.0445557	196.61852	-100.69351	-2.3759174
1448007264019	-0.7744903564453125	8.2667236328125	0.41180419921875	-6.995187992558554	0	41.59088	-2.4719238	-5.345154	196.91557	-97.94533	-2.9827561
1448007264061	-0.3234100341796875	8.513092041015625	0.467742919921875	-6.8642497613713935	0	42.041016	-2.62146	-4.7454834	197.34451	-96.678734	-3.4232862
1448007264101	0.0693511962890625	9.80206298828125	-0.641510009765625	-6.7685242644718855	0	43.09082	-4.571533	-5.49469	199.64827	-94.58478	-4.311324
1448007264142	-0.0556182861328125	9.490234375	-0.529632568359375	-6.82247809891958	0	45.939636	-6.5216064	-6.845093	201.02982	-91.835976	-5.35605
1448007264182	0.0098419189453125	9.460479736328125	-0.534393310546875	-6.817297682614459	0	47.88971	-7.571411	-7.145691	202.54802	-90.25922	-6.1822124
1448007264222	-0.4102935791015625	9.979400634765625	-0.831939697265625	-6.850730016662025	0	49.090576	-9.220886	-7.295227	203.93512	-88.98963	-7.4738727
1448007264263	0.5811309814453125	10.246002197265625	0.24993896484375	-6.4783764282496445	0	51.190186	-10.871887	-7.444763	204.99638	-88.19816	-8.774634
1448007264304	1.1024322509765625	11.279083251953125	-0.03570556640625	-6.261577510897542	0	52.990723	-14.170837	-8.195496	206.6657	-87.62915	-9.444635
1448007264344	-0.1889190673828125	11.583770751953125	-0.81170654296875	-6.553425374868179	0	53.73993	-15.670776	-8.795166	208.92015	-87.38992	-10.002672
1448007264385	-1.3553009033203125	10.979156494140625	0.78790283203125	-6.579874349615145	0	56.140137	-23.771667	-8.195496	210.44055	-87.56339	-10.085468
1448007264425	-1.6635589599609375	11.9610595703125	1.29254150390625	-6.402184908643217	0	57.341003	-29.171753	-6.994629	210.79846	-88.86361	-8.949617
1448007264465	-3.9106292724609375	10.40667724609375	-0.085693359375	-7.2747321886287555	0	56.739807	-35.920715	-1.7456055	211.15259	-93.99603	-6.2154326
1448007264506	-4.4271697998046875	10.5709228515625	-1.0140380859375	-7.541712593125142	0	55.9906	-40.270996	0.9552002	210.98758	-96.01202	-5.3688455
1448007264546	0.1490936279296875	9.972259521484375	-1.55914306640625	-6.8804745612999065	0	52.090454	-49.571228	8.004761	210.58022	-101.02111	-1.4553864
1448007264586	1.0417327880859375	10.6470947265625	-2.552947998046875	-6.784038252640393	0	49.240112	-54.52118	11.305237	211.1229	-102.45105	0.11407107
1448007264626	0.7810821533203125	9.324798583984375	-0.3094482421875	-6.6766746821821465	0	46.839905	-57.070923	13.104248	214.01796	-105.38679	2.4734082
1448007264667	-1.8040008544921875	6.9337158203125	-3.32537841796875	-8.463344049761341	0	43.840027	-60.97107	16.55426	221.447	-111.48472	3.0953128
1448007264708	-1.5219268798828125	7.201507568359375	-3.63958740234375	-8.37831666461699	0	43.99109	-62.020874	17.304993	224.15793	-113.198456	2.8436189
1448007264748	-0.5840606689453125	5.523345947265625	-3.533660888671875	-8.621009687266111	0	41.740417	-66.22162	17.904663	231.4596	-116.11628	2.6156416
1448007264789	-0.1365509033203125	5.02703857421875	-3.600311279296875	-8.670740681421522	0	41.290283	-68.77136	17.904663	233.24634	-116.132645	2.5641932
1448007264829	1.1738433837890625	7.161041259765625	-5.261810302734375	-8.053581363242161	0	41.59088	-72.37091	16.404724	236.58734	-113.62373	1.7695445
1448007264870	1.0702972412109375	10.95892333984375	-5.26300048828125	-7.205404103345263	0	42.19055	-75.67139	14.604187	239.0805	-111.05828	0.83253026
1448007264910	1.6880035400390625	14.147430419921875	-4.752410888671875	-6.477482538676494	0	42.041016	-77.62146	14.604187	242.18631	-110.230675	0.8603868
1448007264951	0.6549224853515625	10.8470458984375	-5.416534423828125	-7.339732764018108	0	39.489746	-81.07147	16.104126	244.21915	-110.844475	1.5240068
1448007264991	-0.2258148193359375	6.301727294921875	-5.63433837890625	-9.142089581210582	0	35.290527	-82.87201	22.105408	246.45483	-113.084526	2.911629
1448007265031	-2.2515106201171875	14.71038818359375	-1.6995849609375	-6.526463935361969	0	36.790466	-86.02142	22.105408	245.64447	-111.79728	1.4080092
1448007265072	-1.5183563232421875	12.900115966796875	0.77838134765625	-6.31946062922473	0	32.89032	-85.42175	23.454285	243.15889	-109.37204	2.000573
1448007265112	0.1407623291015625	2.47052001953125	-1.069976806640625	-8.56510672897829	0	29.890442	-87.52136	23.00415	242.95738	-107.891266	3.129256
1448007265152	-1.1398773193359375	8.42620849609375	3.497955322265625	-6.522656258243233	0	29.890442	-87.9715	20.605469	240.46147	-104.43021	2.0555422
1448007265193	-1.9515838623046875	14.118865966796875	-1.634124755859375	-6.561117393571056	0	32.89032	-89.17084	19.554138	237.55984	-101.122375	-0.8163086
1448007265233	-1.6635589599609375	7.299102783203125	-0.470123291015625	-7.533843846730019	0	32.29065	-89.62097	19.255066	236.9573	-99.24491	-1.7814758
1448007265274	-0.7221221923828125	8.73089599609375	-0.015472412109375	-6.979357281094959	0	31.690979	-90.22217	15.95459	235.30032	-96.565216	-2.2666569
1448007265314	1.2857208251953125	9.32598876953125	0.1094970703125	-6.532274624439553	0	32.141113	-92.32178	13.554382	235.01099	-94.35886	-3.052231
1448007265355	-0.2496185302734375	9.465240478515625	-0.4046630859375	-6.83827406400431	0	31.990051	-92.77191	11.454773	234.62628	-92.28859	-3.802589
1448007265395	0.1407623291015625	8.9998779296875	-0.49749755859375	-6.86667777310431	0	33.190918	-91.72211	10.404968	234.3527	-90.53257	-4.8752236
1448007265435	0.0955352783203125	9.627105712890625	-0.74981689453125	-6.811132741510986	0	33.340454	-92.32178	9.5047	233.99832	-89.037056	-5.4354744
1448007265477	0.0241241455078125	10.234100341796875	-0.491546630859375	-6.681431547508948	0	33.641052	-94.12079	8.905029	233.14743	-87.77828	-7.344965
1448007265518	1.6618194580078125	10.350738525390625	0.08807373046875	-6.328003772515817	0	34.39026	-94.12079	9.054565	232.24258	-86.61553	-8.978763
1448007265558	1.5380401611328125	11.188629150390625	-0.151153564453125	-6.260402635629213	0	33.190918	-94.721985	9.355164	232.17226	-86.40849	-9.355548
1448007265599	-0.6197662353515625	12.347869873046875	0.35943603515625	-6.329886081246896	0	30.940247	-94.27185	10.255432	232.12686	-86.19901	-9.852973
1448007265639	-2.2253265380859375	11.993194580078125	1.098541259765625	-6.510176286070339	0	26.589966	-94.721985	12.654114	231.35437	-86.60523	-9.386258
1448007265679	-2.3681488037109375	9.498565673828125	1.850738525390625	-6.809742413208827	0	21.490479	-94.721985	18.504333	228.44745	-90.43088	-7.129096
1448007265720	-2.9275360107421875	8.932037353515625	0.790283203125	-7.199919247414743	0	15.640259	-90.67078	26.605225	227.22958	-92.68709	-6.3234444
1448007265760	-3.8535003662109375	10.813720703125	-1.891204833984375	-7.555152576023662	0	9.190369	-90.52124	29.904175	224.77878	-97.19277	-4.826771
1448007265800	1.8558197021484375	11.19219970703125	-2.69696044921875	-6.5892938349045895	0	2.2903442	-85.42175	35.905457	222.22052	-101.72038	-0.21650897
1448007265841	0.9643707275390625	9.281951904296875	-0.4189453125	-6.671735199193442	0	-2.3590088	-81.67114	39.05487	223.65788	-104.4081	2.6715667
1448007265881	-0.4864654541015625	7.965606689453125	-0.567718505859375	-7.1776415124060655	0	-3.2592773	-76.72119	42.80548	224.7794	-106.17727	3.414627
1448007265921	-0.7387847900390625	6.849212646484375	-3.885955810546875	-8.315133592098555	0	-2.809143	-71.77124	47.154236	229.77696	-111.87571	3.7462137
1448007265963	-1.0160980224609375	7.12890625	-3.589599609375	-8.218138915124433	0	-2.5100708	-70.121765	48.20404	231.44511	-113.31718	3.6590424
1448007266003	-0.1841583251953125	6.006561279296875	-2.898101806640625	-8.096541185964371	0	-2.809143	-66.52222	49.705505	234.70737	-114.98369	3.3666809
1448007266043	0.9667510986328125	6.163665771484375	-4.8131103515625	-8.284329814206858	0	-3.2592773	-66.82129	48.954773	235.54877	-114.28599	3.0897758
1448007266084	1.4725799560546875	8.1334228515625	-5.23681640625	-7.71634011152508	0	-1.7593384	-69.37103	46.554565	236.29419	-112.09156	2.4849067
1448007266125	1.2654876708984375	11.752777099609375	-4.9130859375	-7.54592045679395	0	-1.9104004	-71.621704	44.454956	236.48605	-110.75607	2.1964147
1448007266165	2.9269866943359375	12.459747314453125	-4.171600341796875	-6.457699633164314	0	-3.2592773	-70.42084	43.554688	238.81268	-108.79888	2.747966
1448007266206	1.5773162841796875	7.270538330078125	-8.5740966796875	-9.283381179074842	0	-5.2093506	-67.87109	44.154358	240.50427	-109.693016	4.3662343
1448007266247	0.4216461181640625	9.97821044921875	-3.03973388671875	-7.093645396497747	0	-4.460144	-65.771484	44.75403	242.06429	-110.43632	4.218501
1448007266287	-1.6445159912109375	18.14288330078125	0.624847412109375	-5.668579371525597	0	-3.7094116	-66.22162	42.05475	241.1795	-108.358406	3.752197
1448007266327	-2.2907867431640625	5.8292236328125	-1.453216552734375	-8.36257079776271	0	-5.3588867	-65.62195	40.405273	239.86002	-106.79742	4.342291
1448007266368	-1.2767486572265625	4.4010009765625	1.477020263671875	-7.661542289119518	0	-6.2591553	-66.22162	38.905334	238.47089	-104.84948	4.0723577
1448007266408	-2.6430816650390625	14.01055908203125	2.07568359375	-6.140108351196993	0	-5.659485	-68.621826	33.955383	233.51938	-100.886215	1.5911537
1448007266449	-0.3448333740234375	9.489044189453125	-1.596038818359375	-7.059206326521386	0	-4.460144	-70.121765	31.404114	230.55118	-98.31525	-0.40735593
1448007266489	-1.4409942626953125	7.46453857421875	1.281829833984375	-7.103754435505459	0	-5.5099487	-70.42084	28.555298	227.74982	-95.56173	-0.8648884
1448007266529	-0.0627593994140625	9.24029541015625	0.08331298828125	-6.7634356930616715	0	-4.460144	-72.52197	26.15509	226.24873	-93.155396	-1.9648604
1448007266570	0.4644927978515625	9.82586669921875	-0.251129150390625	-6.638125548993697	0	-4.460144	-71.47217	24.954224	225.22583	-91.4388	-2.6778746
1448007266610	0.5097198486328125	9.30218505859375	-0.3760986328125	-6.734824247375133	0	-3.8589478	-73.12164	23.754883	223.1006	-89.31796	-3.9124935
1448007266650	0.5799407958984375	9.252197265625	-0.153533935546875	-6.69555449631855	0	-4.309082	-72.37091	22.854614	223.1006	-89.31796	-3.9124935
1448007266690	-0.3019866943359375	9.872283935546875	-0.051177978515625	-6.721293003492956	0	-2.659607	-71.92078	20.605469	220.57292	-86.81134	-6.6545696
1448007266731	0.6596832275390625	10.34478759765625	0.405853271484375	-6.502062566202769	0	-2.659607	-72.821045	19.554138	219.62842	-86.382706	-7.399317
1448007266771	1.2404937744140625	9.853240966796875	-0.08807373046875	-6.489121889937751	0	-2.5100708	-71.77124	19.404602	217.69376	-85.92512	-8.543641
1448007266811	-0.7554473876953125	11.53973388671875	0.308258056640625	-6.476052814376583	0	-2.0599365	-71.621704	18.954468	215.4237	-85.74309	-9.6152935
1448007266852	-2.1324920654296875	11.68017578125	0.70220947265625	-6.605054562484461	0	-3.1097412	-69.97223	19.854736	214.48152	-85.87846	-9.666214
1448007266892	-2.1598663330078125	10.75897216796875	1.310394287109375	-6.658664148990594	0	-6.4102173	-70.121765	21.20514	209.82393	-87.922516	-7.9570036
1448007266932	-3.0917816162109375	9.810394287109375	0.51177978515625	-7.117661091051957	0	-9.559631	-66.970825	24.954224	205.5478	-91.74094	-6.5143895
1448007266973	-3.0858306884765625	11.450469970703125	-2.457733154296875	-7.376187251529138	0	-14.360046	-60.671997	30.055237	200.97925	-96.2716	-5.086564
1448007267013	0.1288604736328125	9.69732666015625	-1.25445556640625	-6.878848035201271	0	-17.210388	-59.622192	31.105042	196.88272	-99.79863	-2.7543695
1448007267055	1.2321624755859375	10.415008544921875	-2.32562255859375	-6.753478898256071	0	-20.809937	-55.421448	33.20465	195.39165	-101.32979	-1.1805881
1448007267095	-0.8006744384765625	8.251251220703125	-1.11639404296875	-7.289819767389728	0	-20.6604	-48.67096	38.754272	196.34952	-106.52075	1.9912969
1448007267137	-0.7256927490234375	6.8623046875	-3.805023193359375	-8.279645925668625	0	-20.359802	-45.822144	40.104675	198.96596	-110.49521	2.7006803
1448007267177	0.2823944091796875	7.20269775390625	-3.090911865234375	-7.71036997973706	0	-19.309998	-41.6214	44.75403	201.94983	-113.61105	2.8680782
1448007267217	0.2133636474609375	6.601654052734375	-1.96380615234375	-7.604053394851413	0	-17.959595	-38.771057	45.50476	204.1639	-115.40782	2.7954571
1448007267257	0.1312408447265625	5.32220458984375	-4.316802978515625	-8.740465648215626	0	-17.810059	-39.22119	46.255493	205.92754	-116.164955	2.0674045
1448007267298	-0.2389068603515625	5.344818115234375	-4.81549072265625	-9.065060397925158	0	-15.559387	-39.671326	45.80536	206.67358	-115.8148	1.6121068
1448007267338	0.0848236083984375	9.61639404296875	-5.31536865234375	-7.71235813263524	0	-15.109253	-41.921997	43.704224	207.08276	-112.23261	0.5969591
1448007267381	0.4145050048828125	14.22955322265625	-3.974029541015625	-6.540099014767723	0	-14.659119	-41.171265	42.65442	207.34511	-110.181946	0.43717474
1448007267421	0.5013885498046875	10.750640869140625	-7.35772705078125	-7.833201315454968	0	-14.5095825	-40.72113	42.955017	208.54944	-110.16115	1.5087205
1448007267461	0.5121002197265625	6.180328369140625	-6.640045166015625	-9.577725748823589	0	-14.810181	-38.02185	43.855286	209.27763	-111.55508	2.4870293
1448007267502	-2.7335357666015625	10.7708740234375	-0.317779541015625	-7.028190614070649	0	-14.810181	-36.820984	42.65442	208.81367	-111.32971	1.5481662
1448007267542	-1.6528472900390625	9.033203125	0.618896484375	-6.099753982499281	0	-16.90979	-38.02185	39.95514	205.66225	-109.25471	1.0361127
1448007267583	-2.0979766845703125	6.225555419921875	-2.407745361328125	-8.495175822236208	0	-18.10913	-39.82086	39.204407	202.84325	-107.660355	2.0992105
1448007267623	-1.2255706787109375	11.25885009765625	2.750518798828125	-6.231156220862445	0	-19.0094	-41.921997	35.005188	197.45396	-103.26288	1.0680833
1448007267664	-0.3805389404296875	11.290985107421875	-2.172088623046875	-6.850528697756884	0	-18.409729	-44.322205	32.455444	193.8065	-100.58691	-0.7175883
1448007267704	-0.5055084228515625	7.587127685546875	-0.036895751953125	-7.152410196925964	0	-20.359802	-44.621277	29.904175	191.09877	-98.219315	-1.1156311
1448007267744	-0.5364532470703125	8.11199951171875	0.2713623046875	-7.00536659856128	0	-20.059204	-46.421814	28.704834	189.62039	-96.85234	-1.352472
1448007267785	1.1143341064453125	9.474761962890625	-0.455841064453125	-6.6233226000735	0	-19.60907	-46.270752	25.704956	188.2179	-93.877495	-2.8563304
1448007267825	0.6489715576171875	9.46405029296875	-0.6331787109375	-6.727664609374136	0	-19.60907	-46.87195	24.655151	187.62604	-93.050446	-3.3339093
1448007267866	0.4871063232421875	9.2950439453125	-1.081878662109375	-6.856977718004335	0	-18.409729	-48.07129	22.854614	185.98557	-90.92407	-4.8076086
1448007267906	0.4656829833984375	9.624725341796875	-1.10687255859375	-6.809345295007185	0	-18.260193	-47.921753	22.40448	185.3714	-90.28172	-5.3713117
1448007267947	0.4621124267578125	9.9234619140625	-0.03570556640625	-6.589478806383871	0	-16.760254	-49.121094	19.7052	183.85866	-89.11985	-6.7697916
1448007267987	1.5011444091796875	10.16864013671875	0.59747314453125	-6.304135483344664	0	-17.059326	-49.121094	18.655396	182.12206	-88.444626	-8.100057
1448007268030	0.3264312744140625	11.24456787109375	-0.772430419921875	-6.5204824236515915	0	-16.459656	-47.47162	17.454529	181.05884	-87.87505	-8.953573
1448007268070	-3.0382232666015625	12.4276123046875	0.570098876953125	-6.650734363595454	0	-17.959595	-46.87195	16.55426	179.84924	-88.17356	-9.098231
1448007268110	-2.0420379638671875	11.019622802734375	1.66864013671875	-6.543744659108231	0	-19.0094	-46.421814	16.404724	177.18597	-89.65873	-8.134048
1448007268151	-2.9001617431640625	10.07342529296875	0.92120361328125	-6.961522292258797	0	-21.710205	-43.121338	17.004395	174.34753	-93.00825	-6.3457313
1448007268191	-5.1365203857421875	11.3992919921875	-2.619598388671875	-7.897890169309793	0	-23.95935	-40.72113	17.904663	170.29724	-97.458565	-4.668568
1448007268232	-2.1122589111328125	9.49261474609375	-1.629364013671875	-7.40847743822609	0	-26.959229	-38.471985	17.004395	165.65009	-101.03425	-2.7569168
1448007268272	1.4785308837890625	10.51617431640625	-0.351104736328125	-6.3943279616262725	0	-28.009033	-37.27112	16.705322	162.4419	-103.83569	0.49246868
1448007268312	1.1476593017578125	8.82611083984375	-1.65911865234375	-6.923086259915203	0	-29.2099	-31.721497	18.954468	163.76373	-107.01436	3.0245674
1448007268353	-0.2186737060546875	7.595458984375	-1.629364013671875	-7.40922200213474	0	-28.909302	-30.671692	20.454407	166.93225	-108.998505	3.6559827
1448007268394	-1.3695831298828125	6.161285400390625	-3.94189453125	-8.88474982819451	0	-28.459167	-28.271484	23.754883	170.48041	-114.406815	3.9632761
1448007268435	-0.2115325927734375	5.78875732421875	-3.608642578125	-8.4035382931174	0	-27.859497	-27.22168	24.205017	173.10223	-116.2894	4.010779
1448007268476	0.2740631103515625	6.1529541015625	-3.921661376953125	-8.223768412318941	0	-27.70996	-27.82135	23.454285	174.22961	-116.069405	3.9663584
1448007268516	0.7334747314453125	7.157470703125	-5.132080078125	-8.145616750100919	0	-26.959229	-28.572083	22.854614	174.33203	-114.30741	3.4587774
1448007268556	0.8405914306640625	11.440948486328125	-4.271575927734375	-6.976412022275231	0	-27.259827	-31.871033	19.404602	173.43011	-110.03103	2.354051
1448007268597	0.2312164306640625	13.823699951171875	-3.8133544921875	-6.606355964047673	0	-27.11029	-33.221436	18.354797	173.2334	-109.1263	2.188916
1448007268637	0.6334991455078125	8.551177978515625	-6.62457275390625	-8.206567384670803	0	-27.859497	-31.721497	19.404602	175.53967	-110.10942	3.4814384
1448007268678	0.2466888427734375	6.201751708984375	-7.577911376953125	NaN	0	-28.909302	-30.970764	19.255066	175.66663	-111.08876	4.0053706
1448007268718	0.4502105712890625	12.03961181640625	-0.32373046875	-6.318607465755507	0	-28.459167	-32.621765	17.454529	173.23523	-110.80338	3.3026066
1448007268758	1.8653411865234375	14.127197265625	1.11639404296875	-5.670305463205359	0	-30.40924	-34.87091	14.454651	171.53625	-109.5043	2.6088262
1448007268799	-1.2303314208984375	5.05084228515625	0.053558349609375	-7.838334465610092	0	-31.30951	-35.321045	13.104248	167.43408	-106.327896	3.591763
1448007268841	-1.3910064697265625	5.085357666015625	0.515350341796875	-7.754844279138976	0	-30.709839	-37.121582	12.054443	165.76123	-105.01367	3.1188824
1448007268882	-0.1591644287109375	11.988433837890625	0.912872314453125	-6.236986334120621	0	-28.759766	-41.921997	6.504822	160.90613	-101.305695	1.0565833
1448007268922	-0.2865142822265625	8.55950927734375	-1.12591552734375	-7.133197772916795	0	-28.160095	-42.37213	4.2541504	157.8064	-97.826294	-1.4162301
1448007268963	-0.7018890380859375	9.01416015625	0.39752197265625	-6.855364141783935	0	-28.309631	-42.82074	2.6046753	156.36157	-95.383705	-2.3305635
1448007269004	-0.4483795166015625	9.0284423828125	0.358245849609375	-6.816899560855584	0	-28.009033	-44.322205	0.9552002	155.92035	-94.305046	-2.8291125
1448007269047	-0.6638031005859375	9.48309326171875	-0.56890869140625	-6.934252272142775	0	-27.859497	-45.220947	-0.09460449	154.81482	-91.86131	-4.1719246
1448007269087	-0.0591888427734375	9.46881103515625	-0.26422119140625	-6.7824635941848515	0	-27.409363	-45.07141	-1.7456055	153.31226	-90.60306	-5.1478534
1448007269128	-0.1710662841796875	9.51641845703125	-0.47369384765625	-6.828067085091166	0	-27.11029	-46.270752	-3.5446167	151.57959	-89.36639	-6.14599
1448007269168	-0.8113861083984375	9.950836181640625	-0.739105224609375	-6.908265159331514	0	-26.809692	-46.57135	-5.1956177	149.55853	-88.13307	-7.418311
1448007269209	0.5573272705078125	10.403106689453125	0.22137451171875	-6.46267887777243	0	-27.11029	-47.621155	-6.6955566	147.13904	-87.25654	-8.687128
1448007269250	1.9760284423828125	10.700653076171875	-0.1666259765625	-6.269644311559418	0	-25.909424	-49.42169	-8.345032	145.78387	-86.85737	-9.13922
1448007269290	-0.9792022705078125	12.88702392578125	0.68792724609375	-6.2575509863391305	0	-26.660156	-47.47162	-8.944702	143.99045	-86.89588	-9.913016
1448007269331	-2.5740509033203125	11.807525634765625	1.02593994140625	-6.6035678938774955	0	-28.61023	-46.87195	-8.944702	141.39325	-87.69792	-9.026849
1448007269371	-1.4064788818359375	9.505706787109375	0.5189208984375	-6.870931625726274	0	-29.660034	-47.322083	-8.64563	137.69135	-90.34643	-7.343187
1448007269412	-2.2550811767578125	10.109130859375	-1.133056640625	-7.21411219057983	0	-31.610107	-46.270752	-8.195496	135.86377	-92.314445	-6.38406
1448007269452	-2.6656951904296875	11.000579833984375	-2.098297119140625	-7.309283935819484	0	-33.110046	-43.121338	-5.795288	131.03546	-98.31246	-3.6437714
1448007269492	0.9596099853515625	9.924652099609375	-2.6326904296875	-6.934045099693751	0	-35.35919	-41.3208	-5.645752	127.66751	-101.066986	-0.7920301
1448007269533	-0.0187225341796875	8.75946044921875	-0.831939697265625	-6.994341438314493	0	-37.15973	-35.77118	-0.8453369	129.18387	-105.222664	2.5566075
1448007269573	-1.1672515869140625	7.55975341796875	-1.943572998046875	-7.697351595234024	0	-37.609863	-35.321045	3.3554077	132.14395	-109.18845	2.9847488
1448007269613	-1.7587738037109375	7.6859130859375	-2.64935302734375	-7.996134243659158	0	-37.609863	-35.321045	3.3554077	133.77307	-111.15175	2.8124936
1448007269654	-0.9613494873046875	6.339813232421875	-3.03497314453125	-8.27575363259864	0	-37.7594	-32.17163	8.305359	137.72177	-115.36608	2.2449217
1448007269694	-0.7066497802734375	5.75543212890625	-3.138519287109375	-8.42447733484924	0	-37.908936	-30.970764	9.805298	138.41827	-115.88431	2.1760104
1448007269738	1.2000274658203125	6.205322265625	-4.82025146484375	-8.198775921749657	0	-38.059998	-30.671692	9.355164	138.70819	-115.03442	1.7066301
1448007269778	1.1155242919921875	8.0858154296875	-5.837860107421875	-7.972620825020684	0	-37.309265	-30.221558	8.755493	138.0351	-112.92271	1.0816402
1448007269819	0.4978179931640625	12.54425048828125	-4.160888671875	-6.826469162340299	0	-37.460327	-32.47223	8.755493	137.55695	-110.970825	0.3351883
1448007269859	-0.0246734619140625	13.714202880859375	-4.150177001953125	-6.718015790853002	0	-37.908936	-30.522156	9.054565	137.77814	-110.60073	0.31474695
1448007269899	-0.3507843017578125	5.481689453125	-8.70025634765625	NaN	0	-37.609863	-27.82135	10.255432	138.3089	-112.30876	2.3890848
1448007269940	-2.1955718994140625	10.813720703125	-1.379425048828125	-7.116112357418675	0	-36.408997	-29.022217	10.10437	137.1484	-112.807686	1.9167277
1448007269980	0.2276458740234375	14.365234375	-0.453460693359375	-6.046358045595461	0	-36.109924	-28.871155	9.054565	135.10275	-111.01853	1.2320323
1448007270021	-1.7123565673828125	7.1146240234375	-3.100433349609375	-8.289420344703597	0	-35.65979	-27.671814	8.004761	132.62103	-109.57176	2.474428
1448007270061	-0.5709686279296875	5.830413818359375	1.9281005859375	-7.125640138986189	0	-34.909058	-30.970764	6.2042236	130.32306	-107.444664	2.2456598
1448007270101	-1.1065521240234375	9.729461669921875	3.471771240234375	-6.328859241097344	0	-34.75952	-31.871033	4.4052124	128.29343	-105.6414	1.5773649
1448007270142	-0.6697540283203125	9.127227783203125	-2.745758056640625	-7.416680399209591	0	-33.56018	-31.271362	2.154541	123.77783	-101.569405	-0.7634704
1448007270182	-0.9066009521484375	7.94775390625	0.474884033203125	-7.065060836080453	0	-33.56018	-32.47223	0.9552002	120.499664	-98.67802	-0.82361597
1448007270222	0.2776336669921875	8.699951171875	-0.24517822265625	-6.8515354294345885	0	-32.209778	-32.7713	-0.99487305	118.41629	-96.13581	-1.7294581
1448007270263	0.4216461181640625	9.60687255859375	-0.648651123046875	-6.743943056476788	0	-32.510376	-34.87091	-1.7456055	117.33035	-93.93256	-2.6221864
1448007270303	0.4787750244140625	9.193878173828125	-0.82122802734375	-6.83146552053551	0	-31.159973	-34.121704	-2.1957397	116.0939	-91.99316	-3.4744725
1448007270343	0.2335968017578125	9.105804443359375	-0.54986572265625	-6.841884917152925	0	-30.709839	-34.721375	-2.645874	115.16632	-90.440674	-4.260078
1448007270384	-0.3329315185546875	10.076995849609375	-1.084259033203125	-6.863845287515188	0	-29.660034	-34.57184	-3.5446167	114.14642	-89.106125	-5.2139935
1448007270424	-0.2877044677734375	10.155548095703125	-0.315399169921875	-6.715897093215232	0	-29.060364	-34.87091	-3.994751	112.41791	-88.07526	-6.4200053
1448007270464	0.7751312255859375	10.238861083984375	0.301116943359375	-6.442806122110082	0	-28.009033	-34.721375	-4.295349	110.776	-87.4243	-7.5214896
1448007270506	0.6144561767578125	10.9422607421875	-0.5760498046875	-6.492891033561062	0	-27.859497	-34.420776	-3.8452148	109.389984	-86.99961	-8.222655
1448007270546	-0.8209075927734375	12.140777587890625	1.23779296875	-6.262920702452437	0	-27.70996	-33.821106	-3.3950806	107.62933	-87.07107	-8.51579
1448007270586	-0.4793243408203125	11.638519287109375	0.691497802734375	-6.364116485293874	0	-27.409363	-31.271362	-2.3452759	105.520386	-88.08475	-7.8643675
1448007270627	-2.8204193115234375	9.804443359375	0.42132568359375	-7.08532277570893	0	-28.309631	-27.671814	-0.39520264	102.15793	-92.66558	-5.852727
1448007270668	-3.8094635009765625	10.375732421875	-0.508209228515625	-7.345287404578034	0	-28.909302	-27.970886	0.9552002	100.90442	-94.74328	-5.3299775
1448007270708	-2.6347503662109375	10.5233154296875	-1.895965576171875	-7.358621346640316	0	-28.459167	-24.671936	1.8554688	98.431335	-98.38259	-3.6215916
1448007270748	-0.3055572509765625	10.622100830078125	-1.565093994140625	-6.848315094017998	0	-29.660034	-20.021057	3.5049438	96.33273	-102.33441	0.593455
1448007270789	0.6275482177734375	10.0472412109375	0.198760986328125	-6.509093303260922	0	-29.2099	-18.67218	4.8553467	96.97296	-103.42758	1.6567037
1448007270829	-0.3519744873046875	6.984893798828125	-2.59222412109375	-7.796451948131757	0	-28.459167	-15.52124	8.454895	101.09622	-108.38725	3.7509382
1448007270869	-0.3424530029296875	6.994415283203125	-3.23016357421875	-7.956789548614592	0	-27.409363	-13.571167	9.204102	102.97485	-110.1693	3.8834147
1448007270910	0.3002471923828125	6.689727783203125	-2.60650634765625	-7.7129265230868285	0	-26.359558	-10.421753	12.3550415	108.13464	-113.82766	3.887148
1448007270950	0.3907012939453125	5.65545654296875	-3.0706787109375	-8.081642282843848	0	-25.759888	-9.220886	12.054443	109.48944	-114.35798	3.9068525
1448007270992	2.0986175537109375	6.1434326171875	-4.90118408203125	-7.978796375737484	0	-23.210144	-8.021545	12.954712	111.87567	-113.564575	3.568095
1448007271032	2.1688385009765625	8.477386474609375	-5.32489013671875	-7.499798136192189	0	-22.16034	-5.770874	13.705444	113.59241	-111.58983	2.6662438
1448007271072	0.9417572021484375	13.270263671875	-5.05828857421875	-6.781086440320472	0	-20.959473	-5.0216675	13.705444	115.398926	-109.73055	1.8422897
1448007271112	1.2214508056640625	11.224334716796875	-4.373931884765625	-6.965499220778096	0	-19.158936	-3.3721924	14.305115	119.1864	-109.51893	2.1391351
1448007271153	-0.6519012451171875	10.299560546875	-8.549102783203125	-8.758479530514412	0	-17.959595	-1.8707275	14.454651	122.01761	-110.58659	3.0844426
1448007271193	-2.9120635986328125	13.555908203125	0.10711669921875	-6.527734143684597	0	-15.109253	-0.5218506	13.85498	123.24365	-111.138016	2.9115062
1448007271233	-0.5840606689453125	6.0767822265625	1.938812255859375	-7.080516029635814	0	-13.909912	0.37841797	12.805176	123.44751	-110.4653	3.5104165
1448007271274	-2.6038055419921875	7.03131103515625	-3.326568603515625	-8.757344602278149	0	-13.009644	0.37841797	12.654114	122.4949	-108.5236	3.1011357
1448007271314	-1.8849334716796875	11.640899658203125	3.875244140625	-6.114553097921366	0	-13.310242	-1.2710571	11.305237	120.2258	-104.711044	1.0053343
1448007271355	-0.7721099853515625	10.19720458984375	-1.179473876953125	-6.935081111408273	0	-12.860107	-1.5716553	10.554504	117.59427	-101.10806	-0.3595777
1448007271395	-1.1732025146484375	8.3524169921875	-0.61651611328125	-7.244823592063934	0	-12.258911	-2.770996	9.954834	115.796265	-98.7116	-1.2679316
1448007271436	-1.7790069580078125	9.04510498046875	0.858123779296875	-6.956297945522648	0	-12.709045	-1.4221191	9.355164	113.88965	-95.71447	-2.1755795
1448007271477	0.3276214599609375	9.2998046875	0.079742431640625	-6.690967066051977	0	-11.659241	-2.1713257	8.905029	112.729645	-92.60334	-3.4861536
1448007271517	0.6120758056640625	9.741363525390625	-0.64984130859375	-6.691540125381064	0	-11.659241	-1.8707275	8.305359	111.96329	-90.91578	-4.092909
1448007271558	0.7394256591796875	9.60211181640625	-0.32373046875	-6.6415080571275755	0	-10.4599	-1.8707275	7.8552246	111.68567	-90.17823	-4.4443135
1448007271598	0.4680633544921875	9.517608642578125	-0.999755859375	-6.808948229414344	0	-10.910034	-1.4221191	7.5546265	111.30786	-88.567406	-5.1967545
1448007271638	-0.2043914794921875	10.131744384765625	-0.391571044921875	-6.718593869767814	0	-9.7091675	-1.2710571	7.2540283	109.974915	-86.50961	-7.332014
1448007271679	0.6442108154296875	9.974639892578125	-0.23089599609375	-6.583564984379775	0	-8.808899	-0.82092285	6.654358	109.24481	-86.09672	-8.070438
1448007271719	2.5508880615234375	9.68780517578125	0.1142578125	-6.291923478639223	0	-9.410095	-0.82092285	6.504822	108.02353	-85.71572	-8.948802
1448007271760	0.2681121826171875	11.279083251953125	0.10235595703125	-6.393456083959897	0	-6.7092896	2.027893	5.455017	107.31406	-85.76909	-9.24589
1448007271800	-2.6526031494140625	12.009857177734375	0.98785400390625	-6.590218798676599	0	-5.2093506	1.5792847	4.8553467	106.39728	-86.332535	-8.5673
1448007271841	-1.8385162353515625	11.024383544921875	1.62103271484375	-6.519215017310254	0	-3.4103394	2.3284912	4.7042847	104.683105	-88.18787	-6.884805
1448007271881	-4.7735137939453125	11.067230224609375	-1.6329345703125	-7.6477155981962435	0	-2.3590088	3.678894	3.9550781	100.805664	-94.435555	-4.886358
1448007271921	-2.6145172119140625	11.02557373046875	-1.9376220703125	-7.2623055107078915	0	-1.159668	2.3284912	4.1046143	97.72882	-98.11599	-2.897315
1448007271962	0.6513519287109375	10.448333740234375	-2.3946533203125	-6.856170819586952	0	0.340271	2.3284912	3.804016	95.9281	-100.99052	0.27324447
1448007272002	0.6549224853515625	9.162933349609375	-0.391571044921875	-6.736374472446842	0	1.6906738	1.5792847	3.3554077	96.97739	-103.841805	2.9786944
1448007272042	-0.2389068603515625	6.880157470703125	-1.42822265625	-7.523394368852958	0	3.340149	0.9780884	3.2043457	100.0668	-107.74305	4.182601
1448007272084	-1.0018157958984375	6.719482421875	-3.174224853515625	-8.211782840429368	0	4.6905518	-0.97198486	2.9052734	102.0871	-109.94735	4.17321
1448007272124	-0.3472137451171875	6.510009765625	-3.214691162109375	-8.089595381951918	0	6.491089	-0.5218506	2.3040771	106.98584	-114.66976	3.6540098
1448007272164	0.1514739990234375	4.978240966796875	-3.881195068359375	-8.68922812928688	0	7.0907593	-2.1713257	1.5548706	108.96588	-115.465485	3.3284354
1448007272204	0.7560882568359375	6.56951904296875	-4.43939208984375	-8.107713538237196	0	8.140564	-2.4719238	0.9552002	109.85327	-114.26865	2.7908995
1448007272245	0.1026763916015625	9.408111572265625	-6.22943115234375	-7.995148424184781	0	10.240173	-3.3721924	-0.09460449	110.21887	-113.08374	2.397987
1448007272285	0.4728240966796875	14.392608642578125	-4.48699951171875	-6.585042422128844	0	11.889648	-5.3207397	-0.8453369	110.92517	-109.71377	0.99151456
1448007272326	0.6132659912109375	10.441192626953125	-4.257293701171875	-7.199462696942835	0	12.789917	-6.8222046	-0.99487305	112.82355	-109.72715	1.9851955
1448007272366	-0.3150787353515625	8.253631591796875	-6.790008544921875	-8.734898403694649	0	14.14032	-9.971619	-1.4450073	113.6694	-110.818726	3.3946893
1448007272407	-0.2579498291015625	10.019866943359375	-2.53271484375	-7.11788241153746	0	14.440918	-10.121155	-1.2954712	113.992065	-111.14942	3.1136653
1448007272447	-0.1924896240234375	10.034149169921875	-0.142822265625	-6.692304368517106	0	14.590454	-12.521362	0.5050659	112.17172	-109.30006	3.101712
1448007272488	-1.7111663818359375	8.408355712890625	-1.122344970703125	-6.973469825279102	0	15.339661	-12.371826	0.5050659	111.20758	-107.92482	3.4590797
1448007272528	-2.0551300048828125	8.44525146484375	1.850738525390625	-6.935910189980191	0	16.690063	-14.321899	0.65460205	109.65204	-104.07278	2.0096538
1448007272569	0.0967254638671875	10.58282470703125	0.646270751953125	-6.441214298055636	0	18.040466	-14.772034	0.8041382	107.34924	-100.911934	0.31587052
1448007272609	-0.2865142822265625	9.633056640625	-0.88311767578125	-6.897403430048566	0	17.89093	-15.670776	1.1047363	106.26788	-98.398506	-0.8396669
1448007272649	-0.2758026123046875	8.734466552734375	0.68792724609375	-6.782266819524766	0	19.39087	-17.62085	0.8041382	105.37082	-94.708374	-2.217539
1448007272689	0.2324066162109375	8.924896240234375	0.174957275390625	-6.751725185570456	0	20.289612	-17.921448	0.20446777	105.65405	-93.73004	-2.7195013
1448007272730	-0.1770172119140625	9.50689697265625	-0.603424072265625	-6.85254250420264	0	20.890808	-18.821716	0.20446777	105.78668	-91.99385	-3.5638795
1448007272770	0.1050567626953125	9.537841796875	-0.54986572265625	-6.79113439135611	0	21.490479	-18.67218	0.05493164	105.765686	-89.674034	-4.7593994
1448007272810	-0.4936065673828125	9.788970947265625	-0.681976318359375	-6.871742582420154	0	22.990417	-20.321655	0.05493164	105.592285	-88.88286	-5.325001
1448007272851	-0.4471893310546875	10.126983642578125	-0.489166259765625	-6.774995135945679	0	23.890686	-19.570923	0.05493164	105.16263	-87.519875	-6.932775
1448007272891	1.6308746337890625	10.295989990234375	0.322540283203125	-6.306685014285838	0	25.241089	-20.921326	0.9552002	104.08133	-86.393845	-8.40277
1448007272931	2.0807647705078125	10.59234619140625	-0.020233154296875	-6.24951161093554	0	26.589966	-20.471191	1.1047363	104.00873	-86.23442	-9.337676
1448007272972	-1.8492279052734375	11.23504638671875	0.504638671875	-6.661690278987278	0	26.741028	-21.520996	2.3040771	103.71048	-86.29712	-10.160739
1448007273012	-2.4693145751953125	11.717071533203125	1.165191650390625	-6.579689928678142	0	27.790833	-22.271729	3.9550781	103.34613	-86.63084	-10.089627
1448007273053	-2.0575103759765625	9.624725341796875	1.312774658203125	-6.826668855825115	0	27.340698	-26.321411	6.954956	101.85776	-89.94296	-8.211461
1448007273094	-2.5323944091796875	9.586639404296875	1.209228515625	-6.931974196396652	0	26.741028	-26.470947	10.855103	101.474	-91.94353	-7.33896
1448007273134	-4.3557586669921875	10.883941650390625	-2.279205322265625	-7.745295155700445	0	25.090027	-28.121948	15.205383	99.18564	-98.25392	-4.623789
1448007273175	1.1333770751953125	10.4376220703125	-3.189697265625	-6.911552180035222	0	23.739624	-29.771423	18.354797	98.06879	-100.899956	-1.5159957
1448007273215	2.6413421630859375	10.39715576171875	-0.098785400390625	-6.209418808509353	0	22.239685	-32.321167	20.30487	100.03934	-103.20362	1.887613
1448007273255	-0.1984405517578125	7.496673583984375	-0.94500732421875	-7.2860394060035345	0	21.340942	-33.522034	21.504211	105.592834	-106.83579	3.478638
1448007273296	-1.2636566162109375	6.104156494140625	-4.133514404296875	-8.96577571774311	0	24.34082	-32.621765	23.00415	109.01611	-108.9121	3.504407
1448007273336	-0.9101715087890625	6.9908447265625	-2.89453125	-8.021623258478296	0	25.540161	-32.7713	22.554016	117.82156	-113.451004	2.943653
1448007273376	-0.5923919677734375	6.077972412109375	-2.326812744140625	-7.963880644258753	0	26.890564	-34.721375	22.254944	120.20438	-114.0524	2.7883625
1448007273417	0.0253143310546875	6.9908447265625	-3.550323486328125	-7.944924525786231	0	27.490234	-34.420776	22.554016	125.204285	-113.68337	2.284026
1448007273457	-0.0365753173828125	7.957275390625	-4.788116455078125	-8.036689375656481	0	28.390503	-37.571716	21.20514	127.19354	-111.75654	1.8022069
1448007273498	0.8108367919921875	10.63995361328125	-5.3177490234375	-7.330102194259817	0	30.039978	-38.471985	20.454407	129.00943	-109.42063	1.3057822
1448007273538	2.1700286865234375	13.102447509765625	-3.752655029296875	-6.412513794996922	0	31.089783	-39.071655	19.554138	132.97266	-108.31511	1.5498769
1448007273578	1.7070465087890625	8.88800048828125	-7.492218017578125	-8.045115120844862	0	31.089783	-42.37213	20.30487	136.82458	-108.85059	3.283789
1448007273619	0.1645660400390625	9.484283447265625	-4.2894287109375	-7.4915577160735936	0	31.089783	-43.121338	21.354675	140.67957	-110.31549	3.9684453
1448007273660	-1.3088836669921875	13.8367919921875	-2.275634765625	-6.604682830620018	0	31.089783	-44.171143	21.20514	144.51709	-109.42758	3.1588495
1448007273700	-1.6897430419921875	8.379791259765625	-0.76885986328125	-7.3732507947908115	0	30.79071	-47.17102	22.554016	146.90143	-107.758835	4.0255756
1448007273740	-1.1505889892578125	5.83160400390625	0.314208984375	-7.571600223932128	0	32.141113	-47.921753	22.105408	149.53363	-105.998665	3.2705846
1448007273781	-1.3945770263671875	12.2086181640625	2.71600341796875	-6.128279111922932	0	32.740784	-49.272156	22.254944	151.28369	-102.14439	1.3376653
1448007273821	0.0169830322265625	9.696136474609375	-0.267791748046875	-6.733274804256949	0	33.48999	-50.021362	21.354675	156.43762	-99.13481	-0.19235988
1448007273862	-1.1493988037109375	8.63568115234375	0.448699951171875	-6.989689937572608	0	33.039856	-52.12097	20.755005	157.12659	-96.58282	-0.81710434
1448007273902	-0.8911285400390625	8.89752197265625	1.02593994140625	-6.801215935687513	0	33.79059	-53.32184	20.155334	160.20905	-93.91494	-1.755648
1448007273943	0.1681365966796875	9.500946044921875	0.295166015625	-6.649980184877094	0	34.840393	-54.971313	19.104004	164.43909	-91.993195	-2.705507
1448007273983	1.0095977783203125	9.662811279296875	-0.04046630859375	-6.545934002228465	0	35.591125	-56.471252	18.504333	170.9563	-89.87006	-3.7315736
1448007274024	0.1978912353515625	9.389068603515625	-0.51177978515625	-6.794096049179198	0	36.940002	-56.62079	17.904663	175.83484	-88.23322	-4.462464
1448007274064	-1.3243560791015625	9.9996337890625	-0.191619873046875	-6.938813852517013	0	37.539673	-58.421326	17.004395	178.1936	-87.41621	-5.0148473
1448007274106	-1.1779632568359375	9.9044189453125	-0.579620361328125	-6.952333837367573	0	39.190674	-57.67212	16.705322	182.0936	-86.03553	-6.693571
1448007274146	1.1417083740234375	10.01153564453125	-0.353485107421875	-6.520301335676744	0	39.790344	-58.721924	17.604065	185.1129	-85.14256	-8.482327
1448007274186	1.8343963623046875	10.695892333984375	0.1285400390625	-6.24867522067265	0	42.041016	-61.271667	17.755127	190.76775	-84.366745	-9.894967
1448007274227	-1.7337799072265625	12.52044677734375	0.984283447265625	-6.37571814289929	0	41.43982	-61.871338	18.354797	194.8836	-84.24627	-10.040369
1448007274268	-2.9227752685546875	12.007476806640625	2.17803955078125	-6.450599241825594	0	40.541077	-64.271545	18.804932	196.8826	-84.99383	-9.016395
1448007274308	-3.0548858642578125	10.00201416015625	1.95904541015625	-6.822278685855913	0	37.539673	-66.371155	23.304749	196.19182	-87.565865	-7.57087
1448007274348	-4.4164581298828125	9.42120361328125	-0.12139892578125	-7.596770468652121	0	32.89032	-65.62195	33.50525	193.9258	-91.943634	-6.3691874
1448007274389	-4.0427398681640625	10.529266357421875	-1.666259765625	-7.611089416187475	0	27.340698	-65.171814	39.35547	191.2773	-96.47869	-5.0032244
1448007274429	-2.1800994873046875	9.73779296875	-0.524871826171875	-7.154653232948776	0	24.34082	-64.72168	41.604614	189.91624	-98.22331	-3.9001813
1448007274470	1.4202117919921875	11.30645751953125	1.09259033203125	-6.089173518742477	0	19.689941	-64.72168	45.054626	187.95055	-102.57355	0.7602945
1448007274510	0.1395721435546875	7.303863525390625	-0.67840576171875	-7.205632890014454	0	17.89093	-62.171936	49.10431	191.86368	-107.023834	2.5451543
1448007274551	-0.9792022705078125	6.161285400390625	-5.433197021484375	NaN	0	18.789673	-57.67212	54.05426	196.06786	-111.94666	2.706924
1448007274591	-0.7078399658203125	6.8623046875	-4.10137939453125	-8.39171224875158	0	18.940735	-55.27191	54.804993	197.87346	-113.836334	2.5139477
1448007274631	0.1324310302734375	5.48406982421875	-4.5560302734375	-8.776808476897052	0	20.289612	-53.62091	56.155396	201.817	-116.90997	1.5985929
1448007274672	0.9941253662109375	5.847076416015625	-3.859771728515625	-8.079918195581207	0	20.59021	-54.821777	55.70526	204.21828	-116.68571	0.91258943
1448007274712	1.1333770751953125	6.906341552734375	-6.083038330078125	-8.407786110359364	0	21.040344	-60.0708	53.604126	206.37431	-115.220955	0.3316733
1448007274753	1.0441131591796875	8.833251953125	-6.730499267578125	-8.032659233027617	0	21.791077	-62.921143	52.705383	208.47713	-113.360374	-0.03385042
1448007274793	1.7713165283203125	11.956298828125	-4.726226806640625	-6.806368583958116	0	22.390747	-63.82141	51.654053	211.56743	-111.94048	-0.35052153
1448007274834	0.0443572998046875	10.400726318359375	-6.961395263671875	-7.940135868415311	0	21.18988	-65.02075	51.654053	214.65517	-111.43308	0.47331873
1448007274874	-3.9713287353515625	13.314300537109375	-1.11163330078125	-6.937569065873189	0	18.940735	-65.02075	52.705383	217.00546	-112.17182	0.65185326
1448007274914	-0.4174346923828125	9.556884765625	-0.167816162109375	-6.811331412521939	0	18.640137	-66.52222	52.705383	216.4103	-111.4018	0.12417635
1448007274954	-1.5576324462890625	9.091522216796875	-1.3330078125	-7.316442985270243	0	15.040588	-66.82129	53.305054	215.3449	-110.84245	0.6790169
1448007274995	-0.9875335693359375	7.79541015625	2.98260498046875	-6.677625476712407	0	14.14032	-69.07196	50.904846	213.18051	-107.66989	0.37337494
1448007275035	-0.5840606689453125	12.095550537109375	2.38275146484375	-6.079102000938455	0	12.789917	-71.92078	48.805237	209.43042	-104.04188	-0.82963145
1448007275075	-1.6659393310546875	11.34454345703125	-3.164703369140625	-7.254365536468889	0	13.090515	-73.420715	47.90497	208.26183	-102.93078	-1.5362176
1448007275116	-0.8839874267578125	8.5047607421875	0.78076171875	-6.908059844304431	0	10.5407715	-75.22125	44.75403	204.985	-99.23333	-1.8983134
1448007275158	0.0395965576171875	8.8284912109375	0.4237060546875	-6.758355616220676	0	10.240173	-77.02179	43.704224	202.96289	-96.707695	-2.56316
1448007275198	0.3966522216796875	9.008209228515625	0.04522705078125	-6.7325003755609085	0	10.240173	-78.97186	41.15448	202.78728	-95.71756	-3.0619168
1448007275238	-0.0282440185546875	9.522369384765625	-0.393951416015625	-6.789950542373988	0	11.289978	-82.27081	38.4552	202.19565	-92.88182	-4.7721486
1448007275279	0.0872039794921875	9.328369140625	-0.11187744140625	-6.756403993394697	0	11.289978	-81.52161	38.005066	202.11392	-92.15438	-5.1786056
1448007275319	-0.3603057861328125	9.85205078125	-0.617706298828125	-6.827667524046733	0	11.740112	-83.32214	36.054993	201.8752	-89.801865	-6.6222196
1448007275359	-0.4662322998046875	10.315032958984375	-0.73077392578125	-6.786992950498618	0	11.590576	-82.87201	34.70459	201.55544	-89.19825	-7.310301
1448007275399	1.1833648681640625	10.265045166015625	-0.020233154296875	-6.426041336127589	0	11.140442	-83.621216	34.405518	200.47574	-88.171974	-9.264614
1448007275440	1.7915496826171875	10.6756591796875	-0.20709228515625	-6.305155072952248	0	11.289978	-83.32214	33.955383	200.32715	-88.03296	-9.668002
1448007275480	-1.2208099365234375	11.041046142578125	0.47369384765625	-6.598184494846258	0	9.339905	-82.57141	34.10492	199.5163	-88.01897	-10.201491
1448007275520	-2.2812652587890625	11.651611328125	1.2806396484375	-6.5430152044456635	0	3.640747	-80.62134	38.30414	198.06956	-89.37693	-9.64512
1448007275561	-2.2027130126953125	11.41595458984375	1.3187255859375	-6.56130075908462	0	0.9399414	-78.22113	40.104675	196.4475	-90.56215	-8.885837
1448007275601	-4.1748504638671875	10.105560302734375	-0.5379638671875	-7.4843713351868875	0	-7.30896	-72.67151	47.305298	190.71338	-96.28413	-6.509411
1448007275642	-3.4202728271484375	11.067230224609375	-2.893341064453125	-7.626321042387508	0	-12.409973	-68.470764	49.10431	185.73958	-99.73559	-4.5440993
1448007275682	1.3987884521484375	10.55426025390625	-2.395843505859375	-6.715127017715453	0	-18.10913	-63.671875	50.305176	182.5972	-102.04084	-1.3743216
1448007275724	1.4821014404296875	9.6949462890625	-0.066650390625	-6.473373734222774	0	-19.909668	-59.47113	52.705383	182.14246	-104.01595	1.4981624
1448007275764	-0.6733245849609375	7.424072265625	-0.8331298828125	-7.373984576664128	0	-18.10913	-54.52118	56.004333	184.61111	-107.09805	2.5888104
1448007275805	-2.1824798583984375	7.077728271484375	-3.44439697265625	-8.60208705261019	0	-14.959717	-48.371887	59.454346	188.11118	-110.70454	2.3593643
1448007275845	-2.1194000244140625	7.356231689453125	-3.62530517578125	-8.53714086743298	0	-14.059448	-47.322083	59.90448	190.87772	-113.18035	2.003074
1448007275886	-0.5007476806640625	6.601654052734375	-3.883575439453125	-8.31752950716993	0	-12.860107	-45.220947	60.655212	192.38593	-114.106865	2.0882158
1448007275926	0.8072662353515625	6.496917724609375	-4.214447021484375	-8.048835243703936	0	-12.860107	-45.07141	60.054016	192.71638	-113.539055	2.3884413
1448007275966	1.0881500244140625	6.8623046875	-3.9371337890625	-7.803272537289132	0	-13.909912	-48.220825	57.80487	192.41458	-111.858246	2.4132333
1448007276007	0.8286895751953125	10.231719970703125	-4.185882568359375	-7.184668082970295	0	-13.760376	-49.42169	56.155396	191.70988	-109.21355	2.1736019
1448007276047	0.5727996826171875	12.507354736328125	-3.2611083984375	-6.673064294042939	0	-13.909912	-49.121094	55.70526	191.80054	-108.774254	2.22109
1448007276087	2.3021392822265625	8.989166259765625	-7.43865966796875	-7.843784197632534	0	-13.15918	-44.322205	57.504272	193.9292	-110.85619	3.6756935
1448007276128	1.5820770263671875	5.79827880859375	-8.199188232421875	NaN	0	-12.709045	-39.370728	58.854675	194.72453	-112.36929	4.077066
1448007276169	-0.6792755126953125	10.324554443359375	-5.33441162109375	-7.730337177144879	0	-11.659241	-39.671326	58.40454	194.89555	-114.25668	3.6177053
1448007276209	0.8703460693359375	8.467864990234375	-3.402740478515625	-7.370317877368327	0	-11.810303	-38.02185	56.755066	193.9957	-113.46104	2.9727886
1448007276249	-0.8673248291015625	8.458343505859375	-0.36895751953125	-7.119210717215207	0	-13.459778	-40.72113	54.35486	193.32115	-112.377045	3.754728
1448007276289	-2.6240386962890625	8.1429443359375	1.598419189453125	-7.1387685156101846	0	-14.208984	-41.921997	51.95465	191.5467	-109.70549	3.8479028
1448007276330	-1.2017669677734375	10.42572021484375	-0.679595947265625	-6.883526737181449	0	-14.5095825	-45.521545	49.10431	185.94588	-104.855484	2.0857637
1448007276370	-0.2936553955078125	10.895843505859375	-0.310638427734375	-6.598555473716552	0	-16.609192	-47.921753	45.654297	183.8462	-103.229576	1.6484402
1448007276410	-0.9720611572265625	9.2855224609375	-0.3475341796875	-7.007066630854181	0	-18.409729	-50.621033	42.204285	179.44482	-100.00615	1.1630061
1448007276451	-0.6697540283203125	8.50238037109375	0.258270263671875	-6.962149858681768	0	-19.0094	-52.42157	39.505005	174.6908	-95.4257	0.015748495
1448007276491	0.6120758056640625	9.517608642578125	0.724822998046875	-6.511982048508649	0	-18.710327	-53.170776	36.95526	172.50299	-93.30935	-1.1781764
1448007276531	0.3716583251953125	9.49737548828125	-0.66412353515625	-6.77264049494389	0	-18.710327	-55.722046	34.70459	170.97797	-91.28214	-2.0796504
1448007276572	0.4882965087890625	9.360504150390625	-0.48797607421875	-6.7470535327991925	0	-18.559265	-56.02112	33.50525	170.19525	-90.397514	-2.4065251
1448007276612	0.1883697509765625	9.5521240234375	-0.66412353515625	-6.793898514744978	0	-18.409729	-56.17218	31.704712	168.66925	-88.91408	-2.9324594
1448007276653	-0.1674957275390625	9.529510498046875	-0.224945068359375	-6.783841375473648	0	-18.409729	-57.67212	29.754639	167.1211	-87.60356	-3.7586505
1448007276693	-0.0294342041015625	9.77587890625	-0.01666259765625	-6.6873401351454875	0	-18.710327	-58.721924	28.555298	165.10675	-86.41331	-4.9713473
1448007276733	0.3668975830078125	10.49713134765625	-0.17852783203125	-6.537731526256706	0	-18.710327	-57.67212	27.204895	162.86041	-85.31738	-6.5893126
1448007276774	0.7441864013671875	10.484039306640625	-0.032135009765625	-6.460544008501623	0	-17.810059	-59.321594	25.404358	162.12134	-85.0332	-6.977962
1448007276814	-0.6495208740234375	11.022003173828125	-0.02142333984375	-6.5892938349045895	0	-18.260193	-57.97119	24.055481	159.57434	-84.754585	-8.167378
1448007276854	-1.0922698974609375	11.308837890625	1.02117919921875	-6.454325072076752	0	-19.158936	-56.321716	23.605347	156.65338	-85.507164	-8.456036
1448007276894	-0.8935089111328125	10.731597900390625	1.30206298828125	-6.468913379369018	0	-22.76001	-53.771973	24.205017	153.57794	-87.38924	-7.2793536
1448007276935	-2.6216583251953125	8.98797607421875	0.527252197265625	-7.181039117771393	0	-24.108887	-52.12097	25.404358	150.20245	-91.014206	-5.926643
1448007276976	-3.0287017822265625	11.214813232421875	-1.7900390625	-7.2775542535384385	0	-27.259827	-45.521545	27.055359	146.3476	-95.16664	-4.901811
1448007277017	0.0895843505859375	11.557586669921875	-2.464874267578125	-6.776369521483607	0	-29.80957	-42.071533	27.954102	143.60214	-98.716774	-2.7052288
1448007277057	0.9512786865234375	11.1612548828125	-1.912628173828125	-6.612870926407844	0	-30.859375	-39.971924	29.005432	142.36249	-101.488846	0.20347689
1448007277097	-0.8209075927734375	8.68804931640625	-0.51177978515625	-7.094522947540655	0	-31.008911	-37.87079	29.605103	142.65839	-104.3135	1.7221978
1448007277138	-2.5990447998046875	7.52642822265625	-2.864776611328125	-8.370422151847677	0	-29.2099	-32.022095	33.20465	145.1596	-109.787895	1.8515133
1448007277178	-1.1851043701171875	7.50738525390625	-3.41107177734375	-8.288636075020534	0	-28.160095	-29.470825	35.30426	146.26984	-111.53426	1.8438255
1448007277218	-0.0139617919921875	6.0196533203125	-3.819305419921875	-8.327956666265175	0	-26.809692	-27.82135	36.354065	149.31976	-114.90244	2.0420184
1448007277259	1.3737945556640625	6.3148193359375	-4.131134033203125	-7.920471728010409	0	-26.509094	-26.020813	36.354065	150.469	-115.31661	2.0876231
1448007277299	1.3880767822265625	6.7337646484375	-4.150177001953125	-7.813696482839438	0	-25.909424	-26.171875	35.905457	150.87912	-115.00532	1.9635533
1448007277339	0.7548980712890625	7.637115478515625	-6.72216796875	-8.514374949532904	0	-24.85962	-28.121948	35.30426	151.88113	-113.06553	1.21146
1448007277380	1.3499908447265625	9.672332763671875	-6.01519775390625	-7.568939200304883	0	-23.660278	-28.871155	34.854126	152.3894	-112.28498	0.88387185
1448007277420	1.5535125732421875	11.143402099609375	-5.023773193359375	-7.036556411986954	0	-22.16034	-28.271484	34.405518	155.28162	-111.15715	1.7027411
1448007277460	0.9584197998046875	7.872772216796875	-8.525299072265625	-9.253524106169923	0	-22.009277	-27.82135	34.70459	156.35748	-111.74169	2.5191321
1448007277501	-1.8527984619140625	13.461883544921875	-2.093536376953125	-6.721871696558239	0	-20.509338	-25.421143	34.854126	158.53564	-113.06423	2.1624165
1448007277541	-2.3621978759765625	15.944610595703125	-0.265411376953125	-6.157353318454144	0	-19.760132	-27.072144	34.10492	158.24982	-112.265	1.7345061
1448007277582	-1.5254974365234375	6.11962890625	-3.13970947265625	-8.600605805540377	0	-21.409607	-27.072144	32.904053	156.4961	-111.01424	2.819822
1448007277622	0.1324310302734375	7.103912353515625	1.584136962890625	-6.836670649547418	0	-20.509338	-29.470825	31.404114	155.96973	-109.39794	2.182114
1448007277662	-0.7316436767578125	12.645416259765625	1.49249267578125	-6.145143287325512	0	-20.509338	-32.321167	28.555298	153.164	-105.339455	1.0610349
1448007277702	-1.5707244873046875	9.470001220703125	-2.45654296875	-7.473633269708194	0	-20.509338	-34.121704	26.75476	151.34082	-102.706955	0.04741261
1448007277743	-2.1265411376953125	7.75732421875	0.658172607421875	-7.29882096498185	0	-20.359802	-35.321045	24.354553	148.68594	-99.92197	-0.3948103
1448007277784	-0.5043182373046875	9.091522216796875	0.2237548828125	-6.83827406400431	0	-20.809937	-37.87079	22.254944	146.42307	-97.30227	-1.4751985
1448007277824	0.7656097412109375	9.0379638671875	-0.058319091796875	-6.684860978780967	0	-19.309998	-37.721252	22.254944	146.07526	-96.3083	-2.0739224
1448007277864	0.7061004638671875	9.322418212890625	-0.646270751953125	-6.7435544690284654	0	-19.158936	-39.971924	18.954468	144.98547	-93.14736	-3.582543
1448007277905	0.4002227783203125	8.86181640625	-0.808135986328125	-6.899040336254097	0	-19.0094	-41.471863	17.454529	144.75867	-91.021996	-4.4313335
1448007277945	-0.5197906494140625	9.05462646484375	-1.158050537109375	-7.0905762007080435	0	-17.810059	-41.171265	16.705322	144.50574	-89.174644	-5.4843845
1448007277985	-0.1472625732421875	10.379302978515625	-0.427276611328125	-6.675344054864675	0	-17.810059	-42.82074	14.604187	143.69934	-87.734436	-6.746996
1448007278026	-0.4269561767578125	9.974639892578125	-0.13092041015625	-6.737925480657151	0	-16.459656	-43.421936	12.954712	142.55115	-86.812836	-7.6899567
1448007278066	0.3764190673828125	10.574493408203125	0.03570556640625	-6.491993229658729	0	-15.109253	-43.72101	12.805176	141.48697	-86.31702	-8.550544
1448007278106	0.0955352783203125	11.32073974609375	-0.651031494140625	-6.525556944769935	0	-16.31012	-43.121338	12.054443	140.5675	-86.03857	-9.260221
1448007278147	-0.4186248779296875	11.912261962890625	1.569854736328125	-6.192254717477995	0	-16.459656	-44.021606	11.004639	139.00934	-85.96566	-9.790458
1448007278187	-1.8230438232421875	11.89678955078125	1.217559814453125	-6.4463462086931305	0	-16.760254	-42.521667	11.004639	137.21887	-86.68453	-9.244341
1448007278228	-1.2755584716796875	11.440948486328125	1.54010009765625	-6.3852712943207734	0	-18.409729	-41.6214	11.904907	135.1796	-88.95659	-7.774139
1448007278269	-3.1965179443359375	9.258148193359375	-0.51177978515625	-7.450787939612502	0	-19.0094	-38.62152	13.85498	133.14581	-93.11088	-6.4442997
1448007278309	-2.5835723876953125	10.04486083984375	-1.1759033203125	-7.299532962237359	0	-21.409607	-36.671448	14.904785	130.91064	-96.886444	-5.413668
1448007278349	1.0369720458984375	9.727081298828125	-1.417510986328125	-6.7493884668544055	0	-23.059082	-33.0719	16.55426	129.68427	-99.39895	-2.8464139
1448007278389	-0.4626617431640625	10.586395263671875	-0.651031494140625	-6.728824500330281	0	-22.909546	-31.721497	17.604065	129.87598	-101.74793	-0.10268171
1448007278430	-2.0527496337890625	7.925140380859375	-1.748382568359375	-7.775834583042409	0	-22.76001	-30.522156	19.7052	133.09717	-106.284294	0.89285797
1448007278470	-1.4160003662109375	8.029876708984375	-2.91119384765625	-7.882364438766087	0	-22.309875	-29.022217	22.105408	134.61975	-108.03312	1.0356377
1448007278510	-0.5590667724609375	8.03106689453125	-2.174468994140625	-7.504963380563802	0	-21.26007	-26.171875	23.904419	137.82654	-111.00685	1.4802204
1448007278551	0.3407135009765625	6.584991455078125	-3.02545166015625	-7.831694104546133	0	-20.509338	-23.771667	24.804688	142.3003	-113.83799	1.9122735
1448007278591	0.7049102783203125	6.723052978515625	-4.179931640625	-7.8017878266067076	0	-19.760132	-24.07074	25.404358	143.4591	-114.23262	1.8061601
1448007278631	0.4406890869140625	6.925384521484375	-4.652435302734375	-8.159287550686251	0	-18.710327	-24.221802	25.404358	144.96252	-114.225845	1.3697953
1448007278672	0.4240264892578125	7.563323974609375	-5.378448486328125	-8.19139042302893	0	-18.409729	-25.871277	24.655151	145.39056	-112.563034	0.67295986
1448007278712	0.5204315185546875	8.56427001953125	-5.760498046875	-7.983360166294368	0	-17.959595	-27.22168	24.354553	145.62622	-111.672226	0.43773228
1448007278752	0.9869842529296875	11.600433349609375	-4.892852783203125	-7.032692139357195	0	-17.959595	-25.572205	23.904419	147.33179	-109.85818	0.9523335
1448007278793	1.5725555419921875	10.0377197265625	-7.78857421875	-7.8516828534680325	0	-17.50946	-25.572205	24.205017	148.16284	-110.14259	1.668812
1448007278833	1.0738677978515625	12.288360595703125	-3.814544677734375	-6.716667360633841	0	-16.609192	-25.421143	24.804688	151.15045	-111.29554	1.8290272
1448007278873	-4.3664703369140625	15.837493896484375	2.045928955078125	-6.130059164561279	0	-15.859985	-26.62201	24.205017	151.28256	-110.524475	1.3550935
1448007278914	-2.2122344970703125	4.81280517578125	-2.300628662109375	-9.258930376411506	0	-16.760254	-25.72174	23.454285	150.9881	-108.64997	2.3427503
1448007278954	-0.8209075927734375	3.4345703125	-2.9468994140625	NaN	0	-16.459656	-26.321411	23.155212	151.07767	-108.200935	2.4384067
1448007278995	-1.1910552978515625	13.569000244140625	3.24444580078125	-5.854082985859477	0	-15.559387	-28.871155	20.454407	147.97452	-102.99338	-0.10191672
1448007279035	-1.4790802001953125	9.639007568359375	-2.3851318359375	-7.403519574332444	0	-15.559387	-30.970764	20.004272	147.24066	-100.92908	-1.9656506
1448007279076	-1.8575592041015625	7.608551025390625	0.432037353515625	-7.320030239304618	0	-15.708923	-31.721497	17.755127	145.52368	-98.51423	-2.0511067
1448007279116	-0.4900360107421875	8.777313232421875	0.120208740234375	-6.907033487240883	0	-15.559387	-32.621765	16.705322	143.84982	-95.9142	-2.681977
1448007279156	0.6394500732421875	9.612823486328125	-0.352294921875	-6.660176850184433	0	-15.409851	-35.021973	15.805054	143.15698	-94.038704	-3.4676383
1448007279196	0.2776336669921875	9.614013671875	-0.7664794921875	-6.785810724549014	0	-14.659119	-34.121704	14.604187	142.23413	-92.55543	-4.1983256
1448007279237	0.3097686767578125	9.231964111328125	-1.152099609375	-6.9101136494865125	0	-14.5095825	-36.37085	13.705444	141.51529	-91.32942	-4.942877
1448007279277	0.0229339599609375	9.479522705078125	-1.04974365234375	-6.899245014330841	0	-14.208984	-36.52191	13.25531	141.12766	-90.7004	-5.345583
1448007279317	-0.6257171630859375	9.660430908203125	0.0618896484375	-6.790542408780182	0	-13.609314	-37.42218	11.904907	139.3793	-88.85277	-7.0356874
1448007279358	0.0872039794921875	9.7568359375	0.314208984375	-6.619399205985417	0	-13.609314	-37.721252	11.604309	138.58395	-88.45441	-7.615918
1448007279398	1.6927642822265625	10.83038330078125	-0.06903076171875	-6.277560920974512	0	-13.310242	-37.27112	11.154175	137.16791	-87.83599	-8.931276
1448007279439	-0.9768218994140625	11.7039794921875	0.436798095703125	-6.465349382569968	0	-13.15918	-37.27112	11.004639	136.42578	-87.725296	-9.526707
1448007279479	-1.4838409423828125	11.267181396484375	0.936676025390625	-6.532456374638982	0	-13.609314	-36.671448	11.604309	135.25366	-88.26963	-9.320039
1448007279520	-2.7002105712890625	11.4468994140625	0.3951416015625	-6.783053995002566	0	-14.5095825	-35.321045	12.654114	133.46622	-90.2056	-8.080233
