timestamp	accel_x	accel_y	accel_z	accel_mag	temperature	mag_x	mag_y	mag_z	azimuth	pitch	roll
1448008329972	-2.6918792724609375	4.259368896484375	7.644561767578125	-6.7714638594617265	0	-17.224121	-29.107666	-19.772339	128.55457	-21.774918	-21.054062
1448008330015	-2.9858551025390625	3.738067626953125	7.3077392578125	-6.7714638594617265	0	-17.52472	-29.107666	-19.622803	128.55457	-21.774918	-21.054062
1448008330057	-2.8335113525390625	3.611907958984375	8.975189208984375	-6.68352686357977	0	-18.875122	-29.257202	-18.2724	131.18552	-20.421331	-15.777862
1448008330097	0.2585906982421875	3.634521484375	10.348663330078125	-6.032772299548466	0	-18.574524	-29.257202	-16.921997	135.29596	-18.391197	-8.639315
1448008330138	-0.6804656982421875	1.80877685546875	9.253692626953125	-6.5844883035841715	0	-18.12439	-28.50647	-17.071533	137.65625	-16.764452	-6.857462
1448008330178	-0.2686614990234375	3.066802978515625	10.2403564453125	-6.195713969563053	0	-18.12439	-28.807068	-16.322327	139.50018	-15.781641	-4.916101
1448008330218	0.1371917724609375	3.652374267578125	8.522918701171875	-6.297684962383538	0	-18.12439	-29.707336	-15.872192	140.18536	-15.634458	-4.4310155
1448008330259	-0.1758270263671875	2.790679931640625	9.0025634765625	-6.398166872911258	0	-17.52472	-28.657532	-15.422058	142.08899	-16.289368	-2.3056078
1448008330300	0.5251922607421875	2.35626220703125	8.4788818359375	-6.436090201214222	0	-16.773987	-28.807068	-14.222717	143.86392	-16.762688	-0.8537321
1448008330340	0.3680877685546875	1.712371826171875	7.31488037109375	-6.741418118639562	0	-16.474915	-30.15747	-14.372253	144.57483	-16.27137	-0.37811348
1448008330381	0.6882476806640625	3.044189453125	9.151336669921875	-6.217202584874316	0	-16.773987	-28.807068	-14.222717	145.61716	-14.934597	1.1976968
1448008330421	2.3021392822265625	3.097747802734375	7.066131591796875	-6.275875049404469	0	-16.02478	-29.107666	-12.722778	146.38486	-14.764689	3.1156826
1448008330461	1.5225677490234375	1.8349609375	10.3450927734375	-6.104894790240458	0	-15.42511	-28.657532	-12.272644	150.07599	-13.565296	9.926787
1448008330502	2.3402252197265625	2.43243408203125	9.8309326171875	-5.985135369920936	0	-16.02478	-29.406738	-12.872314	151.31207	-11.58028	10.92475
1448008330542	2.1807403564453125	2.4110107421875	7.874267578125	-6.275875049404469	0	-14.524841	-29.707336	-13.471985	151.28638	-10.675475	10.355285
1448008330582	2.4318695068359375	2.3681640625	8.1123046875	-6.213225783913407	0	-14.524841	-29.707336	-13.772583	151.73346	-9.222484	9.592977
1448008330623	1.9248504638671875	1.28985595703125	9.378662109375	-6.257886355554531	0	-13.774109	-30.007935	-13.471985	153.35303	-9.28011	10.953174
1448008330663	2.1378936767578125	1.42315673828125	10.672393798828125	-6.033876287101427	0	-12.87384	-30.906677	-13.322449	155.22717	-9.007626	11.844583
1448008330703	2.1307525634765625	1.845672607421875	9.14776611328125	-6.183867428558976	0	-11.074829	-31.05774	-13.772583	155.99738	-8.537684	10.599914
1448008330743	1.7832183837890625	1.488616943359375	9.425079345703125	-6.243326971890651	0	-10.475159	-31.507874	-13.171387	157.78125	-9.131317	11.009542
1448008330784	1.8653411865234375	2.034912109375	6.192535400390625	-6.629685034772088	0	-9.873962	-31.956482	-11.972046	159.99133	-10.470873	12.8807125
1448008330824	2.0093536376953125	1.7349853515625	8.327728271484375	-6.332111942639291	0	-8.074951	-32.25708	-11.3723755	162.73938	-11.550404	14.671273
1448008330864	2.6234893798828125	1.26129150390625	10.89495849609375	-5.962157338198056	0	-6.274414	-31.956482	-12.121582	165.17163	-10.582346	16.444345
1448008330905	1.5082855224609375	0.417449951171875	7.642181396484375	-6.713395048801779	0	-4.924011	-31.507874	-11.671448	168.09393	-10.722401	18.844923
1448008330945	2.9900665283203125	1.367218017578125	6.141357421875	-6.608402093579446	0	-4.1748047	-30.307007	-10.772705	170.2909	-11.68517	21.468258
1448008330986	4.0886077880859375	-1.055999755859375	10.098724365234375	-6.182881964961824	0	-2.3742676	-29.406738	-10.621643	171.40808	-11.235177	23.484978
1448008331026	2.5163726806640625	-1.14764404296875	7.044708251953125	-6.906007493347533	0	-2.3742676	-30.307007	-10.322571	171.80554	-10.095627	25.519135
1448008331067	4.9098358154296875	-0.5120849609375	7.893310546875	-6.300738992862497	0	-1.3244629	-31.05774	-9.272766	169.83698	-8.899725	26.845427
1448008331107	4.4575653076171875	-0.825103759765625	8.37890625	-6.340857972980164	0	-0.42419434	-30.757141	-8.972168	169.05591	-8.205522	28.035604
1448008331147	5.6882171630859375	-0.677520751953125	9.09539794921875	-6.050791916464372	0	-0.12512207	-31.65741	-8.372498	166.90259	-5.5417747	30.524748
1448008331187	5.2930755615234375	-0.30499267578125	10.969940185546875	-5.811850562139214	0	0.7751465	-31.507874	-8.221436	165.0575	-3.9741166	31.428198
1448008331228	6.4106597900390625	0.986358642578125	10.93780517578125	-5.524681784013333	0	0.47607422	-32.707214	-7.772827	163.64844	-1.026095	31.807306
1448008331268	5.9738616943359375	1.5255126953125	10.32843017578125	-5.584301506829521	0	1.0757446	-33.906555	-7.322693	162.02887	0.15287018	29.16493
1448008331309	4.5920562744140625	0.381744384765625	11.257965087890625	-5.777733441391945	0	2.7252197	-34.806824	-6.4224243	163.52454	-1.6619436	27.776972
1448008331350	3.7934417724609375	1.086334228515625	9.758331298828125	-5.980622046612828	0	3.3248901	-33.75702	-5.522156	164.84229	-3.0743968	27.78744
1448008331391	5.2823638916015625	3.4393310546875	9.6881103515625	-5.515935098396571	0	2.4261475	-34.806824	-5.522156	165.67542	-3.502937	23.412891
1448008331440	4.4908905029296875	3.8011474609375	5.8509521484375	-6.045883298052791	0	3.0258179	-34.35669	-6.121826	165.97083	-1.9484144	18.91169
1448008331480	3.5446929931640625	2.04681396484375	9.663116455078125	-5.900883239521081	0	4.3762207	-33.75702	-8.071899	167.48206	0.52533627	17.465485
1448008331520	4.1243133544921875	-0.796539306640625	9.8690185546875	-6.173861005447947	0	5.7250977	-34.057617	-9.872437	169.82733	1.7653548	19.984884
1448008331561	2.4592437744140625	-1.182159423828125	11.56622314453125	-6.2228439403445455	0	7.975769	-33.607483	-11.671448	172.71466	3.7082393	18.943897
1448008331602	0.4644927978515625	-1.65704345703125	11.331756591796875	-6.622388020150481	0	9.475708	-32.107544	-13.171387	176.23431	6.594537	15.276135
1448008331645	2.0986175537109375	-1.851043701171875	11.695953369140625	-6.350659140888014	0	11.425781	-30.906677	-14.971924	179.8169	8.035576	16.48299
1448008331685	1.8736724853515625	-2.61395263671875	9.832122802734375	-6.791331744708741	0	11.575317	-30.607605	-14.672852	180.73502	7.677052	17.472174
1448008331725	2.1105194091796875	-1.42376708984375	9.917816162109375	-6.5501343573982975	0	12.025452	-30.007935	-15.422058	182.4152	7.830408	17.511778
1448008331768	2.2021636962890625	-1.23809814453125	9.09063720703125	-6.635684870453158	0	11.575317	-29.107666	-16.17279	184.5162	8.177475	17.037685
1448008331808	2.7865447998046875	-1.2880859375	10.22607421875	-6.382489446724202	0	11.875916	-30.007935	-16.17279	185.03252	8.053332	17.220406
1448008331849	3.1495513916015625	-1.069091796875	10.265350341796875	-6.292939524580749	0	11.425781	-29.5578	-15.872192	186.13129	6.0345745	18.785915
1448008331889	3.4732818603515625	-1.24285888671875	10.703338623046875	-6.210246069047195	0	10.826111	-29.406738	-16.021729	186.50385	4.181591	19.59697
1448008331929	2.1438446044921875	-1.1024169921875	9.85711669921875	-6.505305661180233	0	10.075378	-30.456543	-14.971924	186.59196	2.3801858	18.697685
1448008331969	2.4056854248046875	-0.665618896484375	8.732391357421875	-6.570482281847246	0	8.274841	-30.15747	-14.222717	186.31944	0.92745465	18.152039
1448008332010	3.7184600830078125	0.019927978515625	11.246063232421875	-5.935624503572088	0	6.9259644	-30.607605	-13.621521	185.48836	-0.90140295	19.324759
1448008332050	3.4530487060546875	0.6019287109375	5.30108642578125	-6.747831646107629	0	6.625366	-31.207275	-11.071777	184.6726	-5.5173683	20.845955
1448008332091	3.7458343505859375	1.09228515625	9.522674560546875	-6.017036163965196	0	5.5755615	-32.707214	-10.021973	183.51826	-9.536575	21.51502
1448008332131	2.8853302001953125	1.521942138671875	9.46197509765625	-6.082456147176449	0	4.975891	-32.25708	-9.272766	182.89314	-11.169277	18.774908
1448008332171	3.2031097412109375	3.040618896484375	6.5460205078125	-6.230324123406051	0	3.175354	-32.707214	-7.772827	181.4171	-12.416729	15.9823065
1448008332212	3.3721160888671875	3.26080322265625	8.47650146484375	-5.919516160362991	0	3.6254883	-32.406616	-7.322693	180.87497	-12.845084	15.224564
1448008332252	0.2181243896484375	0.80426025390625	11.753082275390625	-6.232321482740144	0	3.7750244	-33.306885	-7.0220947	180.23181	-13.310208	14.250087
1448008332293	3.3816375732421875	4.02728271484375	9.815460205078125	-5.656373440742775	0	2.7252197	-32.85675	-5.97229	178.60455	-15.14996	11.292559
1448008332333	2.0867156982421875	3.16082763671875	7.125640869140625	-6.289046275591293	0	1.9760132	-33.607483	-4.621887	177.23718	-16.718487	8.692536
1448008332374	2.0510101318359375	3.757110595703125	9.929718017578125	-5.839505503379433	0	1.675415	-33.906555	-4.472351	176.79395	-16.941347	7.575469
1448008332414	3.3292694091796875	3.888031005859375	8.66455078125	-5.821395965538393	0	1.5258789	-33.457947	-4.472351	176.83362	-17.416975	5.072271
1448008332454	0.0848236083984375	2.48480224609375	9.401275634765625	-6.346700942331147	0	2.7252197	-33.007813	-4.621887	177.58722	-17.765749	4.223566
1448008332495	-5.2745819091796875	2.669281005859375	8.7073974609375	-7.336357793734146	0	3.9260864	-32.107544	-3.7216187	180.75314	-19.707302	3.7238803
1448008332537	2.3449859619140625	3.771392822265625	8.665740966796875	-5.961847764682805	0	3.7750244	-33.007813	-4.022217	181.39339	-21.147726	5.235043
1448008332578	1.5047149658203125	2.0777587890625	9.789276123046875	-6.149859664957096	0	3.7750244	-33.15735	-3.5720825	181.93413	-21.509285	5.584671
1448008332619	0.5787506103515625	3.345306396484375	9.5548095703125	-6.135242406799844	0	4.824829	-32.406616	-4.022217	183.07855	-21.39526	5.724978
1448008332659	2.0938568115234375	2.043243408203125	9.8499755859375	-6.066670080113257	0	4.525757	-31.65741	-3.8726807	184.08751	-21.784538	6.114945
1448008332699	-0.0377655029296875	4.36053466796875	8.92877197265625	-6.166333369972014	0	5.2749634	-32.85675	-3.7216187	185.2744	-22.55561	4.8092628
1448008332741	1.5308990478515625	4.56048583984375	7.973052978515625	-6.0563416267394405	0	5.8761597	-33.007813	-3.5720825	185.47774	-22.590336	2.7951744
1448008332782	-0.6459503173828125	4.15106201171875	9.267974853515625	-6.232654484487548	0	6.326294	-32.55768	-4.171753	185.89384	-21.717722	3.1824472
1448008332822	3.8458099365234375	4.68426513671875	12.01611328125	-5.273809650282489	0	5.8761597	-33.75702	-5.0720215	186.15674	-20.587141	5.396546
1448008332862	-0.5578765869140625	2.9822998046875	6.492462158203125	-6.820484567539867	0	6.025696	-34.35669	-5.0720215	185.85207	-19.550678	4.3842826
1448008332902	1.3880767822265625	3.252471923828125	11.591217041015625	-5.777733441391945	0	6.625366	-33.607483	-5.671692	186.22142	-18.786392	5.204533
1448008332943	1.0131683349609375	2.87994384765625	9.153717041015625	-6.194560517431625	0	6.625366	-33.457947	-5.97229	186.61969	-19.184498	5.5470195
1448008332983	1.0417327880859375	2.864471435546875	8.445556640625	-6.292092799230906	0	6.625366	-32.85675	-6.272888	186.80424	-18.891914	5.1752224
1448008333023	0.9346160888671875	3.683319091796875	9.641693115234375	-6.030407698766066	0	6.625366	-32.55768	-6.7214966	187.46802	-18.511793	5.5987406
1448008333064	0.7977447509765625	3.438140869140625	11.0592041015625	-5.895706275839282	0	6.7749023	-33.607483	-6.7214966	188.09995	-18.513187	6.2443485
1448008333104	1.3511810302734375	3.826141357421875	9.80474853515625	-5.935931979767373	0	8.274841	-34.806824	-6.5719604	189.62857	-19.22478	6.468908
1448008333145	0.6799163818359375	3.3345947265625	9.89996337890625	-6.076388948691417	0	7.0755005	-34.35669	-6.272888	190.80869	-20.23442	5.8492637
1448008333187	0.1633758544921875	3.548828125	9.7880859375	-6.1323259333315665	0	8.575439	-33.306885	-5.522156	191.80698	-21.55024	5.224671
1448008333227	0.6275482177734375	3.961822509765625	9.441741943359375	-6.060787315027827	0	8.876038	-33.75702	-5.3726196	192.11478	-22.352936	4.9981985
1448008333267	0.9048614501953125	4.606903076171875	7.927825927734375	-6.140595300862046	0	8.724976	-33.007813	-4.322815	192.51555	-25.279781	4.2030716
1448008333308	0.6358795166015625	3.87017822265625	8.356292724609375	-6.220188079449436	0	8.575439	-32.25708	-3.8726807	192.8086	-26.01247	3.9772859
1448008333348	-0.0199127197265625	3.68450927734375	9.04541015625	-6.241490364397304	0	8.575439	-31.207275	-3.5720825	193.50081	-27.362902	3.8706763
1448008333388	0.6715850830078125	5.544769287109375	8.2265625	-6.006216220680181	0	9.025574	-31.956482	-1.9226074	193.67998	-29.561066	4.0073805
1448008333429	0.5240020751953125	5.401947021484375	8.708587646484375	-5.981088695198501	0	8.724976	-31.05774	-1.3214111	193.63728	-30.591156	3.837833
1448008333469	0.2942962646484375	5.73876953125	7.969482421875	-5.938854222746674	0	8.425903	-30.906677	-0.7217407	193.29675	-31.89572	3.3932002
1448008333509	0.2788238525390625	5.1103515625	5.966400146484375	-6.4367965099544096	0	8.274841	-31.207275	-0.27160645	193.07411	-33.036007	2.777564
1448008333550	0.6894378662109375	5.06036376953125	6.390106201171875	-6.322362947657828	0	8.575439	-31.207275	0.02746582	192.98154	-33.24928	2.896312
1448008333590	2.2533416748046875	5.4864501953125	7.692169189453125	-5.878246520541931	0	8.575439	-31.65741	-0.7217407	193.61896	-32.686626	5.628451
1448008333630	0.5787506103515625	4.80804443359375	8.5836181640625	-6.068898405703337	0	8.125305	-31.65741	-1.7715454	193.57764	-29.401455	6.645956
1448008333670	-0.7387847900390625	3.7249755859375	6.4031982421875	-6.742389002355429	0	8.575439	-32.85675	-3.1219482	192.84929	-27.378845	5.7630796
1448008333711	0.8263092041015625	3.76544189453125	6.57220458984375	-6.465349382569968	0	7.3760986	-33.007813	-4.171753	191.72835	-24.720663	4.7021213
1448008333751	-1.5838165283203125	-1.053619384765625	11.879241943359375	-6.766566113630731	0	7.2250366	-33.607483	-9.121704	189.44077	-10.564895	1.799304
1448008333792	-0.3817291259765625	1.9063720703125	9.570281982421875	-6.475695479189202	0	6.7749023	-33.306885	-10.472107	189.04716	-8.781241	2.0445187
1448008333832	1.3488006591796875	2.859710693359375	5.861663818359375	-6.6332460690779484	0	5.4260254	-33.607483	-10.922241	186.14087	-6.7041483	5.4069223
1448008333872	1.7498931884765625	-2.158111572265625	12.272003173828125	-6.362215470067393	0	5.2749634	-33.457947	-13.621521	185.02615	-3.672569	5.8172994
1448008333913	1.4844818115234375	-2.41876220703125	17.661163330078125	-5.7167487882112	0	3.6254883	-31.356812	-18.87207	184.47748	6.108544	7.8921223
1448008333953	2.8424835205078125	-1.662994384765625	8.089691162109375	-6.762067146202629	0	1.9760132	-32.55768	-18.421936	181.92992	9.575625	6.5849996
1448008333994	1.0762481689453125	-1.08575439453125	8.946624755859375	-6.817098615107623	0	2.1255493	-32.25708	-17.222595	181.51529	8.668297	3.798275
1448008334034	0.8465423583984375	-1.158355712890625	6.444854736328125	-7.330102194259817	0	2.5756836	-33.15735	-16.471863	180.9039	7.059033	0.5156607
1448008334074	0.6085052490234375	-1.373779296875	12.405303955078125	-6.394851195174743	0	1.9760132	-33.007813	-15.422058	180.68176	5.7516584	1.49663
1448008334114	1.1417083740234375	0.25677490234375	10.800933837890625	-6.313833601533332	0	0.62561035	-33.75702	-14.222717	180.1865	2.8013957	3.3943093
1448008334155	0.0348358154296875	0.534088134765625	8.358673095703125	-6.818691526519187	0	1.3748169	-33.607483	-13.471985	180.001	1.3091116	2.420685
1448008334195	0.7537078857421875	-0.13836669921875	9.670257568359375	-6.599483108634359	0	1.2252808	-32.707214	-13.471985	179.84375	0.9258471	1.6405051
1448008334235	0.4061737060546875	-0.9215087890625	9.511962890625	-6.807162084720341	0	0.7751465	-34.057617	-13.021851	179.75275	0.6084548	1.656814
1448008334279	0.8167877197265625	0.958984375	9.60955810546875	-6.432384505963599	0	-0.42419434	-33.607483	-11.972046	178.92517	-1.5852302	2.1769717
1448008334320	1.0036468505859375	0.91375732421875	10.665252685546875	-6.25939590940251	0	0.9262085	-33.906555	-11.3723755	178.96838	-3.0134516	2.6214519
1448008334360	1.0036468505859375	0.91375732421875	10.665252685546875	-6.25939590940251	0	0.025939941	-32.707214	-11.222839	179.38525	-3.9433863	2.6438308
1448008334400	1.4892425537109375	2.131317138671875	10.908050537109375	-5.994958591172015	0	0.47607422	-33.607483	-9.272766	179.74628	-8.742085	3.2411876
1448008334440	1.3666534423828125	2.440765380859375	10.597412109375	-6.011230329912883	0	0.47607422	-33.906555	-8.972168	179.7688	-9.70613	3.0825255
1448008334481	0.5966033935546875	2.328887939453125	10.067779541015625	-6.201982007199176	0	1.5258789	-34.50775	-7.772827	181.11855	-12.105727	2.9915972
1448008334521	1.2404937744140625	1.58740234375	10.49505615234375	-6.156538045661716	0	1.9760132	-34.207153	-7.472229	181.86386	-13.184554	3.6026132
1448008334562	-0.3591156005859375	2.624053955078125	8.499114990234375	-6.525738322829418	0	2.2750854	-33.457947	-5.97229	183.24161	-16.126741	4.234122
1448008334602	0.3585662841796875	2.77520751953125	10.772369384765625	-6.077505848805026	0	2.5756836	-33.306885	-5.3726196	183.3956	-17.24708	3.0876727
1448008334642	-0.2829437255859375	3.273895263671875	8.27178955078125	-6.450599241825594	0	2.5756836	-33.607483	-4.9224854	184.0321	-17.808056	2.4100535
1448008334682	-0.4471893310546875	3.173919677734375	12.03277587890625	-5.96478972025089	0	3.7750244	-33.607483	-4.472351	184.44518	-18.602802	2.8036819
1448008334723	0.8072662353515625	2.87994384765625	9.340576171875	-6.279416310386792	0	3.6254883	-33.607483	-4.022217	185.02367	-19.941938	3.4232004
1448008334763	2.3890228271484375	3.8773193359375	10.105865478515625	-5.7603415256064565	0	3.3248901	-33.007813	-3.8726807	184.6371	-20.30284	2.3070579
1448008334803	0.3621368408203125	3.021575927734375	9.88568115234375	-6.163882069539499	0	3.0258179	-32.85675	-3.4225464	184.74252	-20.37412	-0.7107201
1448008334844	0.5882720947265625	3.319122314453125	9.253692626953125	-6.178778748045486	0	3.6254883	-32.406616	-3.4225464	184.9215	-20.667786	-1.4265422
1448008334884	-0.3781585693359375	3.830902099609375	9.594085693359375	-6.194560517431625	0	3.175354	-32.25708	-3.4225464	184.41147	-21.009829	-4.3637695
1448008334924	0.4394989013671875	4.333160400390625	8.925201416015625	-6.10553789328341	0	3.0258179	-32.85675	-2.3727417	184.49568	-22.226133	-4.9207745
1448008334965	1.0286407470703125	3.702362060546875	9.07635498046875	-6.090774682780966	0	3.6254883	-32.55768	-1.7715454	185.27394	-23.194202	-4.49143
1448008335005	1.1381378173828125	5.204376220703125	8.8026123046875	-5.9149260230623835	0	5.1254272	-32.25708	-0.42266846	188.82439	-28.04331	-2.4200537
1448008335045	0.4204559326171875	5.566192626953125	6.440093994140625	-6.28144148530723	0	6.625366	-31.207275	1.2283325	191.2857	-31.847967	-1.9287311
1448008335086	0.5442352294921875	5.594757080078125	7.4505615234375	-6.120198796521489	0	7.975769	-30.15747	1.2283325	195.32867	-34.059795	-0.4104603
1448008335128	-0.8994598388671875	6.3433837890625	6.45556640625	-6.357036207801729	0	11.7248535	-28.50647	0.77819824	199.09656	-35.152454	0.70583254
1448008335168	-1.3029327392578125	6.07916259765625	6.217529296875	-6.490916185871542	0	13.525391	-28.356934	0.62713623	201.66756	-36.617558	1.2925324
1448008335208	1.1643218994140625	6.40289306640625	7.475555419921875	-5.928098951174283	0	13.975525	-27.456665	-0.42266846	205.11961	-37.78467	3.884138
1448008335248	-0.6102447509765625	4.940155029296875	9.127532958984375	-6.1381611989151725	0	16.075134	-26.707458	-1.9226074	208.91628	-38.22881	5.9733167
1448008335289	-0.1817779541015625	5.24127197265625	8.989471435546875	-6.058405040542639	0	16.674805	-27.00653	-2.3727417	210.653	-38.18685	5.9678507
1448008335329	0.1645660400390625	5.992279052734375	7.64337158203125	-6.091735712464763	0	16.075134	-26.40686	-3.2714844	210.722	-37.068283	4.8033986
1448008335370	-0.0449066162109375	5.82684326171875	8.35748291015625	-6.046358045595461	0	16.674805	-26.557922	-2.5222778	210.8056	-35.32085	3.3078017
1448008335410	-1.0375213623046875	4.08203125	5.685516357421875	-6.851938218151325	0	17.726135	-25.357056	-2.5222778	210.90845	-32.93258	-0.4769661
1448008335450	-0.0341949462890625	4.224853515625	5.70098876953125	-6.6615010605599085	0	17.575073	-25.357056	-2.5222778	211.29602	-31.047276	-1.8876922
1448008335491	0.2443084716796875	4.923492431640625	5.931884765625	-6.47498092379316	0	18.025208	-25.20752	-3.1219482	211.80295	-30.063162	-1.8789212
1448008335531	0.0455474853515625	3.73211669921875	10.986602783203125	-5.964170173994919	0	19.525146	-23.857117	-4.472351	214.0042	-25.47581	-1.5767262
1448008335571	-1.5064544677734375	2.333648681640625	11.73284912109375	-6.262584856838089	0	19.676208	-24.307251	-4.171753	214.61885	-23.61374	-2.033265
1448008335612	-1.5124053955078125	2.847808837890625	12.288665771484375	-6.02930472497495	0	20.124817	-24.157715	-4.7714233	214.70802	-20.435453	-3.4931068
1448008335652	-0.3400726318359375	3.92254638671875	10.10943603515625	-6.106341929265059	0	20.124817	-24.307251	-4.022217	212.92345	-18.20513	-5.950003
1448008335693	0.0800628662109375	4.66522216796875	8.413421630859375	-6.179106834597883	0	18.925476	-24.906921	-3.5720825	212.47038	-17.484766	-6.6607223
1448008335733	-0.7602081298828125	3.390533447265625	9.55242919921875	-6.316219717480405	0	18.624878	-24.006653	-4.322815	212.75217	-13.450675	-8.8966
1448008335773	-0.7364044189453125	2.416961669921875	12.2589111328125	-6.073040253084321	0	19.97528	-24.307251	-4.621887	213.08989	-11.823501	-9.681078
1448008335814	-3.2215118408203125	1.026824951171875	12.381500244140625	-6.614921232565504	0	20.275879	-24.307251	-5.522156	214.49529	-8.293986	-11.366691
1448008335854	-2.9680023193359375	1.376739501953125	12.148223876953125	-6.557452256426261	0	20.574951	-24.456787	-5.671692	214.6378	-6.2526617	-13.090582
1448008335894	-3.8749237060546875	-0.75726318359375	11.2781982421875	-7.228614089926195	0	19.676208	-24.906921	-5.671692	214.0898	-4.976488	-14.687815
1448008335935	-2.6573638916015625	1.512420654296875	8.856170654296875	-7.029690311696797	0	19.676208	-25.80719	-5.97229	212.47658	-7.2437215	-14.795115
1448008335975	-3.1132049560546875	1.311279296875	11.227020263671875	-6.736568305620903	0	18.624878	-25.956726	-5.97229	211.00528	-8.50287	-15.571013
1448008336016	-3.8177947998046875	-0.26690673828125	8.375335693359375	-7.735215401410583	0	18.77594	-25.80719	-5.2215576	210.46405	-8.154982	-18.049198
1448008336056	-2.4824066162109375	2.050384521484375	8.92401123046875	-6.892498228314222	0	18.475342	-26.557922	-5.2215576	209.21623	-10.906849	-16.968939
1448008336097	-1.9432525634765625	3.109649658203125	9.8594970703125	-6.486073812023301	0	16.975403	-27.757263	-4.322815	208.01738	-15.227851	-14.887317
1448008336138	-3.1096343994140625	1.950408935546875	7.723114013671875	-7.244591305673477	0	16.525269	-28.057861	-3.4225464	206.6462	-18.665476	-15.685701
1448008336178	-2.4217071533203125	3.409576416015625	10.60693359375	-6.401485779236573	0	16.375732	-28.807068	-2.671814	205.14497	-21.620901	-15.439582
1448008336219	-3.8951568603515625	2.5205078125	7.796905517578125	-7.272382868472679	0	13.975525	-29.707336	0.17852783	200.22705	-28.799791	-15.789666
1448008336259	-2.3562469482421875	3.65594482421875	2.00665283203125	-7.988262652858988	0	12.776184	-30.456543	1.3778687	197.94348	-32.0877	-15.355717
1448008336299	1.9069976806640625	10.032958984375	2.638641357421875	-5.988406968936623	0	8.425903	-31.05774	4.6783447	190.92949	-40.225586	-13.262201
1448008336340	0.7775115966796875	8.460723876953125	5.56292724609375	-5.959372073332986	0	8.575439	-30.607605	5.7281494	189.9657	-41.31222	-13.008836
1448008336380	-4.6771087646484375	4.954437255859375	9.87615966796875	-6.620146146704822	0	8.724976	-30.757141	6.477356	190.42334	-42.449936	-13.460655
1448008336420	-2.4228973388671875	7.45977783203125	8.258697509765625	-6.160289809831082	0	7.975769	-30.607605	7.3776245	190.14218	-43.26865	-13.272622
1448008336461	-3.5238189697265625	5.992279052734375	4.926177978515625	-7.087291620738199	0	7.0755005	-29.707336	9.178162	188.18237	-47.691486	-12.420597
1448008336501	-1.9753875732421875	6.71234130859375	6.228240966796875	-6.495226462908716	0	6.326294	-28.356934	9.927368	187.29523	-50.444168	-10.523927
1448008336541	-1.0684661865234375	7.268157958984375	3.6895751953125	-6.661879508799957	0	4.824829	-28.50647	10.977173	186.36438	-53.012978	-8.192499
1448008336582	1.3964080810546875	8.109619140625	4.638153076171875	-6.045725062189442	0	3.4759521	-28.207397	11.877441	185.08643	-54.769596	-5.659962
1448008336622	-1.2231903076171875	6.989654541015625	7.04827880859375	-6.2268314261963535	0	3.6254883	-28.207397	12.17804	184.44199	-56.000774	-3.9753685
1448008336662	0.8346405029296875	9.35931396484375	3.23492431640625	-6.142056538096499	0	3.175354	-27.157593	13.37738	184.4669	-57.835007	-2.7249491
1448008336703	3.0567169189453125	5.882781982421875	7.35296630859375	-5.770207401408909	0	3.0258179	-26.856995	13.827515	184.8704	-59.075356	-2.2014384
1448008336743	1.0286407470703125	10.547119140625	2.37799072265625	-6.071128060558939	0	4.0756226	-25.657654	14.727783	185.38794	-60.796097	-2.3855617
1448008336783	-1.2148590087890625	9.252197265625	4.5274658203125	-6.261913261069683	0	4.824829	-25.20752	14.578247	186.55025	-61.666817	-3.1035793
1448008336824	1.4404449462890625	8.01202392578125	3.856201171875	-6.158495006452622	0	5.5755615	-25.20752	15.028381	187.43346	-62.116135	-3.5360665
1448008336864	-0.7090301513671875	9.5711669921875	4.72979736328125	-6.119875952271236	0	6.7749023	-25.357056	14.578247	188.75423	-61.936813	-3.8651392
1448008336904	-2.5930938720703125	7.684722900390625	8.706207275390625	-6.09205611094566	0	7.2250366	-25.80719	14.427185	190.24318	-61.095547	-3.9984114
1448008336945	-2.5919036865234375	6.827789306640625	5.9652099609375	-6.612684600203899	0	6.7749023	-25.80719	13.6779785	190.09132	-60.362007	-3.7679605
1448008336987	-1.7635345458984375	8.20721435546875	6.2127685546875	-6.249009753181542	0	5.1254272	-26.707458	13.528442	187.90027	-58.882027	-3.9652076
1448008337027	0.3097686767578125	9.667572021484375	3.07305908203125	-6.194066293545008	0	3.4759521	-27.00653	12.927246	184.22899	-58.028812	-4.781813
1448008337068	0.7667999267578125	5.96014404296875	6.135406494140625	-6.220188079449436	0	3.4759521	-27.757263	13.078308	184.03242	-57.91433	-4.8691683
1448008337108	-0.6471405029296875	6.92657470703125	6.32464599609375	-6.256377443568457	0	2.7252197	-27.157593	13.528442	183.26332	-58.125343	-4.5268836
1448008337149	-1.4255218505859375	8.610687255859375	7.36248779296875	-5.992461408097211	0	2.2750854	-26.856995	13.528442	181.83809	-58.62027	-5.3393264
1448008337190	0.0693511962890625	7.253875732421875	3.021881103515625	-6.590218798676599	0	2.5756836	-27.157593	14.128113	180.704	-60.200302	-6.100971
1448008337230	1.0214996337890625	9.331939697265625	2.7755126953125	-6.183210423047614	0	1.9760132	-25.506592	14.128113	179.89691	-60.40431	-6.8837867
1448008337271	-3.7535247802734375	8.052490234375	8.30987548828125	-6.255707021834815	0	2.4261475	-25.80719	14.128113	180.01535	-59.65257	-7.637872
1448008337311	-2.4490814208984375	8.710662841796875	5.0606689453125	-6.4417448224015725	0	2.5756836	-25.80719	14.727783	181.01329	-59.825836	-8.29762
1448008337353	1.3523712158203125	10.03057861328125	4.43463134765625	-5.829467719479547	0	2.5756836	-25.20752	15.327454	182.5539	-61.82354	-7.194235
1448008337393	-1.4647979736328125	7.27410888671875	3.169464111328125	-6.8101395840401855	0	3.3248901	-24.757385	15.927124	183.37706	-62.72226	-6.990326
1448008337434	-1.5219268798828125	8.101287841796875	4.9083251953125	-6.417251071779926	0	4.2251587	-23.857117	16.227722	185.11742	-64.985245	-7.246797
1448008337474	1.4487762451171875	5.76495361328125	3.67291259765625	-6.507108757996971	0	5.2749634	-20.55664	17.277527	187.28629	-66.88588	-7.504033
1448008337514	-2.0110931396484375	10.49951171875	2.629119873046875	-6.472302704894412	0	7.3760986	-18.75763	18.478394	190.33127	-68.59303	-7.8982725
1448008337555	-1.1029815673828125	6.246978759765625	2.8897705078125	-6.972209818639058	0	9.625244	-16.506958	18.928528	192.80241	-71.94214	-12.036961
1448008337595	-1.9968109130859375	6.763519287109375	0.155914306640625	-7.587901579604821	0	11.425781	-14.1067505	20.277405	194.08818	-74.43822	-15.532072
1448008337635	-4.6271209716796875	17.8072509765625	-0.1094970703125	-6.19126696768191	0	11.276245	-11.257935	21.177673	194.36197	-75.91913	-17.661573
1448008337676	-3.2976837158203125	11.4468994140625	2.20660400390625	-6.588554055308029	0	9.776306	-11.857605	21.478271	194.01105	-75.78488	-17.359463
1448008337716	-2.8525543212890625	7.432403564453125	2.65887451171875	-7.116112357418675	0	8.425903	-11.407471	21.777344	192.43723	-75.93839	-15.108402
1448008337757	0.4549713134765625	8.793975830078125	1.200897216796875	-6.573978098145165	0	7.975769	-10.507202	22.077942	191.12694	-76.851295	-10.728139
1448008337797	-1.5278778076171875	13.251220703125	1.853118896484375	-6.121974945534866	0	7.975769	-8.256531	22.97821	191.23105	-77.054695	-10.314285
1448008337837	-3.1393890380859375	7.608551025390625	2.181610107421875	-7.227690909953093	0	8.724976	-6.6070557	24.028015	191.22488	-77.382126	-10.613668
1448008337878	-1.9551544189453125	14.61279296875	-1.536529541015625	-6.829066222280435	0	8.575439	-4.35791	25.527954	189.31255	-78.84177	-10.19349
1448008337919	0.4740142822265625	15.3792724609375	1.94952392578125	-5.587262294986888	0	9.776306	-3.9077759	25.978088	188.67848	-79.204735	-8.618701
1448008337959	-0.0103912353515625	6.913482666015625	2.176849365234375	-6.793305989137728	0	8.575439	-3.9077759	25.978088	187.86266	-79.34941	-8.062914
1448008338000	-0.9137420654296875	9.129608154296875	2.172088623046875	-6.583564984379775	0	9.925842	-2.557373	25.828552	187.43391	-79.373245	-7.9317684
1448008338040	-1.5933380126953125	7.753753662109375	2.19708251953125	-6.915666211594372	0	11.276245	-2.1072388	27.478027	186.50375	-79.4414	-7.79799
1448008338081	-0.8851776123046875	12.062225341796875	2.27325439453125	-6.139134645831888	0	13.975525	-2.1072388	27.778625	184.90735	-80.170166	-6.7707458
1448008338121	-1.7004547119140625	10.369781494140625	2.267303466796875	-6.49954235777127	0	13.825989	-1.9577026	27.928162	184.25168	-80.513405	-6.719034
1448008338162	-1.1315460205078125	10.072235107421875	-0.67364501953125	-6.9313532162642435	0	11.575317	-2.7069092	28.82843	180.10391	-81.9883	-7.1172757
1448008338202	-1.4636077880859375	12.1943359375	-4.027587890625	-7.217557656045567	0	9.625244	-6.1569214	29.577637	178.00018	-82.7573	-7.4455247
1448008338243	-0.9887237548828125	9.30218505859375	1.10687255859375	-6.737343760728882	0	5.8761597	-6.4575195	30.477905	177.0094	-83.264404	-7.7557025
1448008338283	-1.1363067626953125	9.658050537109375	0.80218505859375	-6.753089097283618	0	2.5756836	-7.6568604	29.127502	177.03375	-83.280014	-7.7140903
1448008338324	-1.0875091552734375	10.484039306640625	1.046173095703125	-6.57508282581226	0	-0.2746582	-7.8079224	27.17743	177.04303	-83.1635	-7.5549517
1448008338364	-1.4981231689453125	9.174835205078125	0.62841796875	-6.924737754006481	0	-1.7745972	-7.206726	24.928284	177.02075	-83.08001	-7.3171306
1448008338404	-1.7147369384765625	9.25457763671875	0.94024658203125	-6.894541058241877	0	-2.2247314	-6.3064575	24.777222	176.81488	-82.894554	-7.109271
1448008338445	-1.3410186767578125	9.712799072265625	1.06640625	-6.734436813333671	0	-2.2247314	-6.907654	24.47815	176.48193	-82.60832	-6.885903
1448008338486	-1.4600372314453125	9.403350830078125	1.0140380859375	-6.813716493317805	0	-1.7745972	-6.756592	24.777222	176.16736	-82.30599	-6.625724
1448008338527	-1.4933624267578125	9.39501953125	1.03070068359375	-6.817894964690236	0	-2.2247314	-6.3064575	24.47815	175.9361	-81.96733	-6.2793264
1448008338567	-1.1148834228515625	9.77587890625	1.258026123046875	-6.657152174357334	0	-3.7246704	-5.706787	24.177551	175.62573	-81.598595	-5.837279
1448008338607	-1.1244049072265625	9.372406005859375	1.141387939453125	-6.742389002355429	0	-4.324341	-5.557251	23.57788	175.39795	-81.190125	-5.3021727
1448008338648	-1.9813385009765625	9.572357177734375	1.3663330078125	-6.813716493317805	0	-4.1748047	-4.8065186	23.878479	175.31018	-80.731094	-4.730014
1448008338688	-1.9480133056640625	9.650909423828125	1.562713623046875	-6.76265359094301	0	-5.2246094	-4.6569824	22.97821	175.16266	-80.37696	-4.1842284
1448008338729	-1.5147857666015625	9.6187744140625	1.331817626953125	-6.734824247375133	0	-5.3741455	-3.6071777	23.277283	174.85999	-80.206955	-3.5775232
1448008338769	-1.8313751220703125	9.48309326171875	1.086639404296875	-6.850528697756884	0	-5.5252075	-2.256775	22.528076	174.83118	-80.28483	-3.4389706
1448008338809	-1.8111419677734375	10.050811767578125	0.51416015625	-6.847912798544819	0	-6.8740845	-0.90789795	22.077942	175.20544	-80.85334	-2.86408
1448008338850	-2.1931915283203125	10.9803466796875	1.741241455078125	-6.561850917798833	0	-6.8740845	0.5935669	21.928406	175.7099	-81.14052	-2.349931
1448008338890	-3.1465301513671875	11.417144775390625	3.133758544921875	-6.429563848439683	0	-8.224487	1.1932373	21.32721	175.77094	-81.220985	-2.2744398
1448008338931	0.9405670166015625	11.595672607421875	2.407745361328125	-5.940854924939881	0	-11.224365	2.243042	19.677734	174.53613	-82.05804	-3.0558217
1448008338971	1.7665557861328125	9.491424560546875	2.15185546875	-6.144655732888649	0	-12.574768	3.742981	18.478394	174.22614	-82.72732	-3.3927183
1448008339011	1.5070953369140625	8.353607177734375	1.08782958984375	-6.497743384114054	0	-14.074707	4.4921875	17.578125	174.53809	-86.1351	-4.5080457
1448008339052	0.6382598876953125	9.874664306640625	0.272552490234375	-6.522475050402266	0	-15.574646	6.4422607	15.777588	175.06268	-89.400566	-5.2968035
1448008339092	-0.5650177001953125	10.391204833984375	-0.127349853515625	-6.692304368517106	0	-17.52472	7.3425293	15.1779175	174.80225	-92.4	-5.945759
1448008339133	-0.2508087158203125	10.19482421875	-0.76171875	-6.776369521483607	0	-18.12439	6.892395	13.827515	173.68372	-94.86548	-6.2481084
1448008339173	0.6620635986328125	8.69281005859375	-0.696258544921875	-6.864047517493581	0	-19.474792	7.043457	13.227844	171.99438	-96.7531	-6.210865
1448008339214	0.8870086669921875	8.539276123046875	-1.27587890625	-6.951708428715888	0	-20.524597	6.4422607	12.327576	169.99536	-97.95181	-6.062443
1448008339254	0.6465911865234375	8.401214599609375	-1.567474365234375	-7.0715805446947115	0	-22.624207	5.8425903	10.977173	168.12244	-98.332794	-5.945418
1448008339294	-0.0710906982421875	9.49737548828125	-1.704345703125	-7.027762277693412	0	-23.524475	5.543518	10.227966	166.61224	-98.37817	-5.8139973
1448008339334	-0.9315948486328125	8.244110107421875	-1.534149169921875	-7.402776776701916	0	-24.723816	6.2927246	8.877563	165.42175	-98.683014	-5.805214
1448008339375	-1.1172637939453125	7.9620361328125	-1.76385498046875	-7.552510969283059	0	-25.474548	5.8425903	8.128357	164.56165	-99.058655	-5.903483
1448008339416	-1.0125274658203125	8.73565673828125	-2.35894775390625	-7.490529725039698	0	-26.524353	5.693054	6.777954	163.11792	-98.93609	-5.7005496
1448008339456	-0.7613983154296875	9.010589599609375	-2.657684326171875	-7.441963250305068	0	-28.474426	5.24292	6.0272217	162.60107	-98.61604	-5.62178
1448008339497	-0.6435699462890625	10.122222900390625	-2.191131591796875	-7.1070590460034335	0	-28.775024	4.7927856	5.128479	162.19055	-98.531815	-5.63567
1448008339537	-1.4409942626953125	10.166259765625	-2.4803466796875	-7.19353479966325	0	-28.474426	3.1433105	3.7780762	161.28058	-98.68709	-5.821275
1448008339577	-2.2039031982421875	10.528076171875	-4.459625244140625	-7.8407547035709575	0	-30.274963	3.2928467	1.9775391	159.91443	-98.99785	-6.2245464
1448008339618	-2.6240386962890625	9.003448486328125	-3.6419677734375	-8.152078311837053	0	-31.173706	2.6931763	1.3778687	157.92072	-99.0938	-6.8802185
1448008339658	4.8669891357421875	13.81298828125	-2.45654296875	-5.7787675248041666	0	-33.12378	-1.0574341	-2.2216797	154.71289	-99.22844	-6.926063
1448008339698	2.3259429931640625	10.933929443359375	-1.043792724609375	-6.311449114571151	0	-33.424377	-2.7069092	-1.9226074	153.98334	-98.61513	-6.08957
1448008339739	0.5228118896484375	9.41644287109375	-1.719818115234375	-6.939644010538736	0	-34.024048	-3.4576416	-2.5222778	154.42291	-98.48733	-5.898493
1448008339779	-1.5861968994140625	6.7528076171875	1.617462158203125	-7.201974714862699	0	-33.87451	-5.557251	-1.9226074	157.09058	-98.03208	-7.2882977
1448008339819	0.1360015869140625	10.451904296875	1.196136474609375	-6.373810702883377	0	-34.77478	-8.407593	-2.671814	156.83978	-96.551506	-6.8207226
1448008339860	0.9048614501953125	10.467376708984375	0.49749755859375	-6.356346226922893	0	-35.523987	-7.8079224	-3.2714844	156.17047	-95.76244	-6.3311634
1448008339900	-0.0937042236328125	8.8427734375	0.40704345703125	-6.780693082909119	0	-34.924316	-10.656738	-4.171753	156.0437	-93.046	-6.5866675
1448008339941	-1.2505645751953125	9.0189208984375	1.03070068359375	-6.840279550885317	0	-36.27472	-13.656616	-4.022217	157.23676	-90.64554	-7.04446
1448008339981	-1.4433746337890625	9.0665283203125	0.99737548828125	-6.870526231375531	0	-35.824585	-14.707947	-3.8726807	157.60504	-88.69797	-6.677649
1448008340021	-1.4481353759765625	8.827301025390625	0.76171875	-6.953376489755129	0	-37.625122	-15.606689	-4.621887	157.46313	-87.12918	-6.0407257
1448008340062	-1.5373992919921875	9.25457763671875	0.542724609375	-6.9325953107029274	0	-36.724854	-15.907288	-4.7714233	157.26794	-86.29847	-5.7996187
1448008340102	-1.4517059326171875	9.215301513671875	0.64031982421875	-6.907649257873905	0	-38.37433	-17.707825	-5.671692	156.6925	-84.05054	-4.8082147
1448008340142	-1.2362823486328125	9.72113037109375	0.50225830078125	-6.808749716339692	0	-39.874268	-18.307495	-7.0220947	155.67993	-82.907005	-3.93391
1448008340183	-1.1827239990234375	9.619964599609375	0.980712890625	-6.737731561762391	0	-40.174866	-18.307495	-7.472229	154.58875	-82.42557	-3.4570022
1448008340223	-0.5864410400390625	10.567352294921875	0.00238037109375	-6.646965270165463	0	-43.025208	-19.207764	-7.9223633	153.73431	-81.32038	-1.7719609
1448008340263	-1.4171905517578125	10.32098388671875	0.517730712890625	-6.7371498785854875	0	-43.32428	-20.857239	-8.522034	153.17773	-80.86543	-0.771797
1448008340304	-1.6040496826171875	11.56353759765625	0.753387451171875	-6.533547087777079	0	-44.22455	-22.807312	-8.522034	152.59229	-80.813736	-0.31700948
1448008340344	-0.0496673583984375	13.983184814453125	4.05377197265625	-5.565457532608585	0	-44.82422	-26.557922	-8.522034	151.6471	-81.21473	-0.56354755
1448008340384	1.5737457275390625	10.53997802734375	3.21826171875	-5.890992068448014	0	-43.174744	-33.15735	-7.171631	150.44464	-83.931755	-2.6046062
1448008340425	1.9891204833984375	10.1043701171875	1.951904296875	-6.058881374294364	0	-42.42401	-34.057617	-5.97229	150.32263	-85.56986	-3.4913478
1448008340465	-0.6554718017578125	9.648529052734375	0.76409912109375	-6.682955274351721	0	-41.82434	-37.957764	-2.0721436	151.03552	-89.60841	-5.10885
1448008340505	-2.2300872802734375	9.14508056640625	0.60699462890625	-7.018568962613635	0	-40.473938	-41.407776	0.9277344	150.49347	-93.21181	-6.6127796
1448008340546	-0.5816802978515625	8.891571044921875	-0.893829345703125	-7.08335535411025	0	-39.12506	-45.15686	2.8778076	145.97922	-98.19663	-8.281136
1448008340586	-0.0032501220703125	7.772796630859375	-0.986663818359375	-7.202203200272722	0	-38.523865	-46.507263	2.4276733	143.76926	-99.63913	-8.5988035
1448008340626	0.0943450927734375	8.395263671875	-1.8804931640625	-7.235779975069056	0	-37.023926	-50.706482	2.128601	137.13116	-102.28004	-9.421889
1448008340666	-0.6733245849609375	6.996795654296875	-1.62579345703125	-7.639187346095651	0	-37.924194	-51.757813	1.0772705	133.20178	-102.79964	-9.922453
1448008340707	-0.8946990966796875	5.975616455078125	-1.648406982421875	-7.953896468407165	0	-36.57379	-53.25775	0.77819824	131.39056	-102.834305	-10.006611
1448008340747	-0.9601593017578125	8.220306396484375	-2.056640625	-7.525480435021749	0	-36.57379	-56.25763	-1.0223389	127.299255	-102.109314	-9.577676
1448008340788	-1.7885284423828125	9.38311767578125	-3.46820068359375	-7.775248590271814	0	-37.47406	-57.45697	-2.0721436	126.27045	-101.547195	-9.346381
1448008340828	-3.0810699462890625	10.860137939453125	-1.399658203125	-7.280850647819728	0	-37.625122	-59.407043	-4.171753	122.97125	-99.54427	-8.427154
1448008340868	-2.2574615478515625	12.20147705078125	-6.735260009765625	-8.015300054942204	0	-36.724854	-62.257385	-3.2714844	120.91614	-100.11988	-8.479554
1448008340908	-1.9884796142578125	14.08673095703125	-1.2901611328125	-6.519033999147554	0	-35.824585	-63.90686	-2.5222778	118.98706	-100.84859	-8.885072
1448008340949	1.4951934814453125	12.88702392578125	0.534393310546875	-5.944397167706823	0	-34.324646	-66.7572	-1.7715454	117.87775	-101.05357	-9.216544
1448008340989	1.7772674560546875	7.158660888671875	-0.422515869140625	-6.888824738677439	0	-34.024048	-67.35687	-1.7715454	117.545685	-99.97576	-9.057422
1448008341029	-0.3948211669921875	6.123199462890625	1.629364013671875	-7.20906710819219	0	-34.474182	-67.65747	-0.87280273	117.454865	-99.543686	-8.792736
1448008341070	-0.2805633544921875	10.109130859375	0.255889892578125	-6.630996530191318	0	-35.073853	-68.85681	-1.6220093	116.08475	-97.73417	-7.024873
1448008341110	0.1157684326171875	10.22576904296875	-0.858123779296875	-6.727084827722217	0	-36.125183	-69.75708	-4.322815	115.35388	-96.79556	-6.442404
1448008341151	-2.2407989501953125	7.70257568359375	0.234466552734375	-7.419919609555395	0	-34.77478	-72.60742	-6.4224243	114.4642	-93.72164	-6.5641294
1448008341191	-1.6302337646484375	8.6761474609375	0.862884521484375	-6.994341438314493	0	-34.62372	-75.6073	-9.272766	113.74951	-91.31778	-6.841381
1448008341231	-0.8887481689453125	9.353363037109375	0.6998291015625	-6.779316734475189	0	-34.474182	-75.3067	-10.621643	111.76398	-89.04784	-6.209445
1448008341272	-1.1815338134765625	9.18792724609375	0.598663330078125	-6.873162296094339	0	-35.523987	-75.756836	-13.322449	109.66168	-86.76885	-5.2001495
1448008341312	-1.9718170166015625	9.108184814453125	0.389190673828125	-7.063324864021165	0	-37.625122	-77.256775	-14.822388	109.41159	-86.03986	-4.0863304
1448008341352	-1.8111419677734375	10.341217041015625	0.15472412109375	-6.859601663669295	0	-38.523865	-76.9577	-15.422058	108.43463	-84.25659	-1.9057469
1448008341393	-2.1086883544921875	10.41619873046875	0.34991455078125	-6.8642497613713935	0	-39.424133	-77.40784	-15.422058	108.04541	-83.88875	-1.300537
1448008341433	-2.1432037353515625	10.991058349609375	0.771240234375	-6.705133435835102	0	-38.974	-79.65698	-14.971924	107.09131	-83.59747	-0.42219493
1448008341473	-0.0306243896484375	12.812042236328125	1.617462158203125	-6.012014382981612	0	-38.674927	-81.30646	-13.621521	106.89453	-83.78517	-0.42298207
1448008341513	1.2274017333984375	12.05865478515625	3.433685302734375	-5.717621909903519	0	-33.573914	-84.60693	-8.071899	106.73447	-86.292534	-2.621137
1448008341554	2.1890716552734375	11.257659912109375	2.150665283203125	-5.857246021108523	0	-30.4245	-86.857605	-5.0720215	106.75711	-87.77644	-3.9498863
1448008341594	1.4285430908203125	11.3516845703125	-0.443939208984375	-6.294294709717215	0	-25.17395	-87.00714	6.92749	108.33942	-94.26875	-7.2204676
1448008341634	-2.0860748291015625	8.594024658203125	-0.717681884765625	-7.400302440607991	0	-22.924805	-86.40747	10.528564	109.86398	-97.768005	-9.209405
1448008341677	-2.2586517333984375	8.53094482421875	-1.35443115234375	-7.588974707378055	0	-19.024658	-85.357666	18.478394	109.285034	-101.01337	-10.907764
1448008341717	-0.1175079345703125	6.70281982421875	-1.819793701171875	-7.6235933146056185	0	-19.024658	-84.60693	19.528198	106.54352	-103.89654	-11.464685
1448008341758	0.4609222412109375	7.432403564453125	-1.818603515625	-7.341904828170618	0	-18.424988	-84.1568	21.627808	104.84076	-104.94579	-11.981176
1448008341798	0.5085296630859375	7.051544189453125	-1.99951171875	-7.448515579588156	0	-17.823792	-83.55713	21.777344	100.23181	-106.13168	-12.047873
1448008341839	-0.0996551513671875	6.116058349609375	-2.8421630859375	-8.02496027426848	0	-18.12439	-85.65674	20.878601	98.42139	-105.49089	-11.786969
1448008341879	-1.1851043701171875	8.7047119140625	-3.159942626953125	-7.71861893758775	0	-19.024658	-85.357666	19.677734	97.77707	-104.11933	-11.425995
1448008341919	-2.8180389404296875	10.036529541015625	-3.0992431640625	-7.77700707615457	0	-19.174194	-85.5072	19.078064	97.25281	-102.45365	-10.918434
1448008341962	-1.3969573974609375	10.893463134765625	-6.411529541015625	-8.050189969201648	0	-19.624329	-87.30774	18.02826	96.42917	-101.399254	-10.185493
1448008342002	-2.4835968017578125	11.7991943359375	-3.314666748046875	-8.43224934544357	0	-20.223999	-86.55701	19.677734	95.26257	-101.70131	-10.189596
1448008342042	-1.1482086181640625	14.5128173828125	-2.564849853515625	-6.520301335676744	0	-19.32373	-85.95734	21.627808	94.60684	-102.85113	-10.6704035
1448008342083	0.9643707275390625	11.145782470703125	0.601043701171875	-6.2413234469940395	0	-18.875122	-83.706665	22.528076	94.77203	-102.51454	-10.752545
1448008342124	0.1669464111328125	4.80328369140625	2.155426025390625	-7.137207535799636	0	-19.32373	-82.65686	23.57788	95.57593	-101.84152	-10.531103
1448008342165	0.5811309814453125	8.91656494140625	2.18280029296875	-6.3889259055579455	0	-21.723938	-83.40759	21.928406	95.96268	-101.25836	-10.187431
1448008342205	2.1557464599609375	11.095794677734375	-0.56414794921875	-6.244663281236377	0	-23.524475	-82.80792	18.777466	95.33023	-97.4059	-7.8857284
1448008342245	1.0286407470703125	10.7899169921875	-0.32373046875	-6.416197771575205	0	-23.07434	-84.1568	18.177795	96.09265	-96.02873	-7.826791
1448008342286	-2.7335357666015625	8.528564453125	0.86407470703125	-7.226076139704442	0	-19.924927	-85.65674	16.227722	101.08115	-92.10518	-8.851122
1448008342326	-3.3536224365234375	8.160797119140625	0.820037841796875	-7.4344253596301	0	-19.924927	-85.5072	15.628052	102.35452	-90.8807	-8.79347
1448008342367	-1.7111663818359375	9.058197021484375	0.066650390625	-7.083792436055489	0	-21.574402	-84.90753	13.827515	103.910736	-88.44354	-7.6255794
1448008342407	-1.7159271240234375	9.01177978515625	-0.213043212890625	-7.145245185578933	0	-21.875	-85.5072	13.078308	104.29471	-87.70582	-7.164623
1448008342447	-1.8063812255859375	9.241485595703125	-0.020233154296875	-7.083573886313186	0	-23.674011	-84.1568	12.77771	105.1557	-85.64471	-5.4173903
1448008342488	-1.9480133056640625	9.7139892578125	0.714111328125	-6.894541058241877	0	-25.624084	-83.706665	12.028503	105.81299	-84.67695	-4.0490065
1448008342528	-1.6123809814453125	10.150787353515625	0.409423828125	-6.815307603694464	0	-27.574158	-83.55713	12.628174	106.33682	-83.91949	-2.8400202
1448008342569	-1.8885040283203125	10.22576904296875	0.527252197265625	-6.829266089953284	0	-28.775024	-82.35779	12.477112	106.79144	-83.365105	-1.9537835
1448008342609	-0.6161956787109375	12.39666748046875	0.889068603515625	-6.247170213464882	0	-29.82483	-81.90765	12.77771	107.26532	-83.25412	-1.4089864
1448008342650	-2.1800994873046875	12.307403564453125	3.9228515625	-6.058246276076864	0	-28.775024	-80.10712	14.877319	108.23328	-83.83593	-1.9699721
1448008342690	2.6461029052734375	10.88037109375	1.553192138671875	-5.923345419407155	0	-27.124023	-79.65698	18.928528	109.22183	-85.89554	-3.7442439
1448008342730	2.4568634033203125	11.01129150390625	-0.17852783203125	-6.161105921662289	0	-25.024414	-77.10724	23.878479	110.140076	-89.907166	-5.6313787
1448008342771	-3.0822601318359375	9.639007568359375	0.1904296875	-7.20906710819219	0	-22.47467	-74.2569	29.727173	111.46719	-94.27734	-7.218507
1448008342811	-2.3860015869140625	9.975830078125	-0.542724609375	-7.151961817151735	0	-21.723938	-71.25702	33.328247	111.77789	-97.988075	-8.758543
1448008342851	-0.8756561279296875	8.865386962890625	-0.872406005859375	-7.1387685156101846	0	-22.624207	-69.306946	34.977722	109.37424	-101.48365	-9.854158
1448008342894	0.1550445556640625	7.52880859375	-2.23516845703125	-7.472358218953569	0	-25.024414	-67.95654	34.677124	103.18738	-105.15091	-10.72453
1448008342935	-1.0720367431640625	8.272674560546875	-1.857879638671875	-7.495159285053813	0	-25.024414	-68.107605	33.62732	99.78119	-106.01041	-11.223045
1448008342975	-1.1732025146484375	6.039886474609375	-1.477020263671875	-7.965496065864541	0	-26.374817	-69.15741	31.828308	96.93164	-106.14758	-11.42007
1448008343016	-0.5757293701171875	6.784942626953125	-2.370849609375	-7.847425774092325	0	-28.474426	-69.90662	29.878235	94.76959	-105.85652	-11.15094
1448008343056	-1.2993621826171875	8.665435791015625	-2.68267822265625	-7.642484618200271	0	-28.92456	-70.35675	28.227234	93.81305	-104.88445	-10.747497
1448008343097	-2.9144439697265625	9.355743408203125	-4.619110107421875	-8.048835243703936	0	-29.974365	-70.207214	25.527954	93.44006	-104.28498	-10.418794
1448008343137	-2.6002349853515625	10.737548828125	-2.27325439453125	-7.385017986472027	0	-32.073975	-70.806885	23.878479	92.18414	-102.98684	-9.438804
1448008343177	-1.6183319091796875	11.831329345703125	-6.190155029296875	-7.800897527740826	0	-32.073975	-70.95795	23.727417	90.73636	-103.14451	-8.715119
1448008343218	-1.9884796142578125	16.080291748046875	-2.369659423828125	-6.382837054064499	0	-32.52411	-70.50781	22.37854	89.464966	-103.36677	-9.353369
1448008343258	0.1181488037109375	9.1046142578125	-0.2713623046875	-6.814710838143241	0	-30.274963	-71.25702	22.677612	90.00583	-103.410904	-10.289362
1448008343299	0.5763702392578125	4.771148681640625	1.74005126953125	-7.144350915028857	0	-29.673767	-72.457886	20.578003	90.208405	-102.27914	-10.088293
1448008343339	-0.5293121337890625	9.271240234375	0.34515380859375	-6.792121287323512	0	-33.724976	-71.70715	17.428589	89.014435	-100.425934	-7.9994273
1448008343380	0.8001251220703125	10.34954833984375	-0.14996337890625	-6.500262221303465	0	-34.77478	-71.406555	15.028381	87.65268	-98.72844	-6.275049
1448008343420	0.0122222900390625	8.699951171875	0.072601318359375	-6.842687926359245	0	-35.073853	-72.457886	11.427307	87.332275	-96.53344	-6.080172
1448008343461	-1.6504669189453125	8.6285400390625	0.196380615234375	-7.128082922333411	0	-34.324646	-73.957825	8.728027	87.578094	-94.014854	-6.607966
1448008343502	-2.2419891357421875	8.627349853515625	0.546295166015625	-7.17379619344907	0	-34.17511	-75.3067	6.628418	87.4588	-91.91915	-6.7564883
1448008343543	-0.7316436767578125	9.0189208984375	0.85455322265625	-6.783053995002566	0	-35.073853	-75.3067	3.62854	86.54712	-89.65602	-5.8905125
1448008343584	-1.1601104736328125	9.271240234375	0.6522216796875	-6.846304163359735	0	-36.724854	-75.157166	0.9277344	86.39072	-87.77126	-4.8418765
1448008343625	-1.7659149169921875	9.465240478515625	0.533203125	-6.937361653936112	0	-38.07373	-73.65723	-0.27160645	86.561646	-86.39285	-3.413174
1448008343665	-2.0063323974609375	9.78302001953125	0.310638427734375	-6.962777563594258	0	-39.72473	-73.20709	-1.0223389	86.78931	-85.35121	-1.9782194
1448008343706	-2.5204925537109375	10.37811279296875	0.879547119140625	-6.850730016662025	0	-40.3244	-71.70715	-1.3214111	86.8764	-84.709145	-0.9338102
1448008343746	-1.6778411865234375	11.1802978515625	0.39990234375	-6.861419610887294	0	-40.174866	-72.75696	-1.4724731	86.85239	-84.53959	-0.57733834
1448008343787	-2.5109710693359375	11.931304931640625	3.3087158203125	-6.238820623046152	0	-40.3244	-72.457886	-1.7715454	86.53345	-84.50739	-0.43945524
1448008343827	-0.2258148193359375	12.6085205078125	3.597930908203125	-6.000895968061765	0	-38.37433	-73.35663	0.02746582	86.604614	-85.33267	-1.6297456
1448008343867	3.3435516357421875	12.616851806640625	0.7664794921875	-5.7167487882112	0	-35.224915	-75.3067	3.9276123	86.29251	-89.717606	-4.726068
1448008343908	2.5044708251953125	12.259796142578125	-0.15472412109375	-5.984356830514352	0	-31.324768	-74.2569	12.477112	87.17523	-94.31503	-6.3130507
1448008343948	-2.4919281005859375	9.070098876953125	-0.19281005859375	-7.279672870505871	0	-29.374695	-73.35663	15.478516	88.87485	-98.00852	-7.9734907
1448008343989	-2.6347503662109375	9.082000732421875	-0.948577880859375	-7.461675164242665	0	-27.723694	-70.806885	19.978333	87.91736	-101.265686	-9.409347
1448008344029	0.5430450439453125	6.757568359375	-1.2901611328125	-7.354977624814985	0	-28.173828	-70.806885	20.72754	86.211334	-102.86134	-9.898908
1448008344070	0.8155975341796875	7.039642333984375	-2.4041748046875	-7.471848393623732	0	-28.623962	-70.65735	20.127869	79.677704	-106.622665	-10.436808
1448008344110	-0.0151519775390625	7.38360595703125	-2.295867919921875	-7.554359768681344	0	-29.524231	-70.806885	20.127869	78.006714	-107.13098	-10.447049
1448008344151	-1.0744171142578125	6.068450927734375	-2.2042236328125	-8.136327513049423	0	-29.225159	-69.45648	18.62793	74.95529	-107.09951	-10.174779
1448008344191	-1.5124053955078125	7.0003662109375	-2.7374267578125	-8.148126588209148	0	-30.274963	-70.35675	17.428589	74.212036	-106.42128	-9.803885
1448008344231	-1.9682464599609375	10.489990234375	-4.147796630859375	-7.715201629637555	0	-31.474304	-69.75708	15.478516	73.95657	-105.22926	-9.325211
1448008344272	-2.5645294189453125	11.279083251953125	-2.66363525390625	-7.34673850408167	0	-31.774902	-70.65735	15.028381	73.3508	-103.84394	-8.75705
1448008344312	-0.7590179443359375	14.0081787109375	-5.164215087890625	-6.963196110519833	0	-33.12378	-70.207214	15.777588	72.68936	-104.05833	-8.502995
1448008344352	0.2621612548828125	17.053863525390625	-3.123046875	-6.039243114161675	0	-32.52411	-67.95654	16.52832	72.46268	-104.7365	-8.500554
1448008344393	0.2645416259765625	9.19744873046875	-0.8807373046875	-6.877222412225112	0	-33.27484	-66.90674	17.277527	73.86081	-104.89027	-8.329484
1448008344433	0.2466888427734375	5.6435546875	-0.015472412109375	-7.382807286469393	0	-33.724976	-66.7572	17.12799	74.51248	-104.371315	-8.226881
1448008344473	-0.7471160888671875	6.304107666015625	1.995941162109375	-7.0583400524590445	0	-33.87451	-67.20734	14.877319	75.50833	-102.1461	-7.6284394
1448008344514	0.5918426513671875	10.498321533203125	-0.510589599609375	-6.5539742015164215	0	-35.523987	-66.607666	11.128235	74.98068	-98.6764	-6.3437104
1448008344554	-0.7126007080078125	8.947509765625	-0.2332763671875	-6.9778842683596345	0	-34.924316	-67.35687	10.528564	75.12311	-97.759514	-6.520145
1448008344594	-2.0765533447265625	8.639251708984375	0.046417236328125	-7.235779975069056	0	-33.27484	-68.107605	9.777832	77.3219	-94.98023	-7.8724847
1448008344634	-2.3264923095703125	8.563079833984375	-0.120208740234375	-7.333468627795989	0	-34.17511	-67.95654	8.728027	78.07007	-94.04479	-7.98541
1448008344674	-1.3386383056640625	8.25244140625	0.695068359375	-7.048181710479547	0	-35.37445	-67.507935	5.7281494	78.12558	-91.28803	-7.24463
1448008344715	-0.8946990966796875	8.874908447265625	0.85931396484375	-6.833466414802441	0	-37.023926	-66.90674	3.9276123	78.20636	-88.895096	-6.435721
1448008344755	-1.2077178955078125	9.36407470703125	0.731964111328125	-6.825271282321998	0	-39.274597	-64.80713	2.5772095	78.734436	-87.139145	-5.1931424
1448008344796	-1.2767486572265625	9.4140625	0.403472900390625	-6.8841375548753305	0	-40.774536	-64.05792	2.5772095	79.403076	-85.792946	-3.777067
1448008344836	-1.4707489013671875	10.248382568359375	0.117828369140625	-6.824073883411444	0	-41.075134	-64.05792	2.2781372	79.75214	-85.20793	-3.1455555
1448008344876	-2.4157562255859375	10.184112548828125	0.96405029296875	-6.8515354294345885	0	-43.174744	-62.257385	2.5772095	80.86542	-83.8582	-1.6649649
1448008344917	-1.5778656005859375	11.433807373046875	0.4998779296875	-6.588554055308029	0	-43.92395	-62.257385	1.8280029	81.52707	-83.33472	-1.0156476
1448008344957	-2.3502960205078125	12.15863037109375	2.885009765625	-6.243828029158905	0	-44.674683	-61.657715	3.9276123	82.48364	-83.43635	-1.1242496
1448008345000	-0.9815826416015625	12.5751953125	3.838348388671875	-5.878246520541931	0	-44.22455	-61.506653	4.6783447	83.82776	-84.88695	-2.4148026
1448008345041	2.7306060791015625	11.575439453125	0.548675537109375	-5.952417717162829	0	-42.72461	-61.357117	10.07843	84.49414	-88.245926	-4.499636
1448008345082	2.2664337158203125	12.090789794921875	-0.066650390625	-6.026312561177763	0	-41.374207	-61.657715	14.277649	84.915955	-92.98914	-6.1247106
1448008345128	-2.9501495361328125	10.110321044921875	-0.7998046875	-7.284623231413686	0	-39.874268	-60.906982	18.928528	86.69043	-99.12211	-8.472781
1448008345168	-1.5362091064453125	8.225067138671875	-0.853363037109375	-7.390923077247872	0	-39.12506	-60.60791	21.177673	86.50461	-100.88049	-9.239107
1448008345209	-0.0818023681640625	6.389801025390625	-1.61627197265625	-7.6405605994880155	0	-40.174866	-59.70764	20.428467	82.013214	-105.71013	-10.365273
1448008345249	-0.0603790283203125	7.496673583984375	-2.110198974609375	-7.575597710485193	0	-40.924072	-60.60791	20.428467	80.05075	-106.85844	-10.328356
1448008345289	-0.8899383544921875	6.625457763671875	-2.319671630859375	-7.958398772232766	0	-42.274475	-61.20758	17.578125	76.99042	-107.94184	-10.37853
1448008345330	-1.4314727783203125	5.52691650390625	-2.2899169921875	-8.4629011001722	0	-42.42401	-62.10785	15.1779175	74.45734	-107.694916	-10.42399
1448008345370	-1.2898406982421875	7.72637939453125	-2.979034423828125	-7.947163452961909	0	-43.174744	-63.90686	14.427185	73.90338	-107.34585	-10.266119
1448008345410	-1.9170684814453125	9.64019775390625	-4.465576171875	-8.001730724793084	0	-45.124817	-65.25726	12.028503	72.7923	-105.386734	-9.376099
1448008345451	-2.9941864013671875	10.807769775390625	-2.483917236328125	-7.49799303091771	0	-47.525024	-64.80713	8.728027	71.79996	-103.88664	-8.606677
1448008345491	-1.9349212646484375	11.39215087890625	-7.017333984375	-8.244583473236338	0	-47.824097	-66.30707	9.0286255	71.039856	-104.08871	-8.467942
1448008345533	-2.3229217529296875	14.994842529296875	-2.694580078125	-6.647907121886936	0	-47.824097	-67.35687	9.477234	70.53467	-104.80935	-8.803188
1448008345574	1.5880279541015625	10.08056640625	-0.18328857421875	-6.417602244596079	0	-47.97516	-68.107605	9.327698	70.433655	-105.12354	-8.756407
1448008345614	0.3895111083984375	8.286956787109375	-1.003326416015625	-7.036556411986954	0	-48.8739	-67.95654	9.178162	71.53821	-104.364174	-8.802745
1448008345654	-1.5493011474609375	7.1717529296875	1.517486572265625	-7.134533691973159	0	-48.423767	-67.65747	9.628296	73.262695	-102.83009	-7.8748946
1448008345694	0.7441864013671875	10.436431884765625	-0.1761474609375	-6.489301275857823	0	-50.524902	-67.0578	6.628418	73.362305	-101.75701	-6.9787474
1448008345735	1.2583465576171875	10.179351806640625	-0.712921142578125	-6.531729434362376	0	-51.724243	-67.80701	3.1784058	72.86636	-98.93682	-5.329571
1448008345775	-0.7030792236328125	8.64044189453125	-0.243988037109375	-7.0329066799321405	0	-52.174377	-69.90662	1.6784668	74.68494	-95.1689	-5.4322286
1448008345815	-2.2241363525390625	9.1141357421875	-0.479644775390625	-7.2747321886287555	0	-51.724243	-70.50781	1.8280029	75.502014	-94.29422	-5.5355864
1448008345856	-2.6692657470703125	8.182220458984375	0.2427978515625	-7.407485045797813	0	-52.174377	-71.10748	0.17852783	76.760376	-91.63001	-5.6769476
1448008345897	-1.1779632568359375	9.24029541015625	0.1951904296875	-6.9330094614911095	0	-53.37372	-72.15729	-3.2714844	76.11044	-89.45237	-5.0953274
1448008345938	-1.2065277099609375	9.239105224609375	-0.008331298828125	-6.973889952038805	0	-55.32379	-71.70715	-5.671692	75.59854	-87.75415	-3.9581704
1448008345978	-1.4981231689453125	9.810394287109375	-0.17376708984375	-6.953793657410248	0	-56.82373	-71.10748	-7.322693	75.58368	-86.187416	-2.4653049
1448008346018	-1.8706512451171875	10.38763427734375	0.409423828125	-6.818890700159809	0	-59.825134	-69.45648	-8.67157	75.72156	-84.8527	-0.8640619
1448008346059	-3.7535247802734375	10.14483642578125	1.07354736328125	-7.074410583288731	0	-61.924744	-68.707275	-8.972168	76.09195	-84.47436	0.32529807
1448008346100	-1.7587738037109375	12.31097412109375	1.769805908203125	-6.296328468396506	0	-61.924744	-70.35675	-9.272766	75.86096	-84.338455	0.41473952
1448008346142	0.6549224853515625	13.716583251953125	3.966888427734375	-5.524264870069244	0	-60.87494	-73.057556	-9.571838	74.63629	-85.07072	-1.1879387
1448008346182	3.0590972900390625	11.693267822265625	1.593658447265625	-5.763578412181019	0	-57.424927	-76.657104	-7.322693	74.1192	-87.51493	-3.4074552
1448008346223	1.5737457275390625	10.30908203125	-0.2427978515625	-6.394851195174743	0	-53.37372	-80.25665	2.5772095	74.68945	-91.6495	-5.3352304
1448008346263	-0.1734466552734375	9.224822998046875	-0.251129150390625	-6.840078941186695	0	-51.87378	-81.90765	5.8776855	76.2655	-95.6482	-7.3131256
1448008346303	-1.5695343017578125	8.5523681640625	-1.167572021484375	-7.395114598671533	0	-47.67456	-82.95746	12.028503	76.36044	-99.053406	-9.454711
1448008346344	-0.4317169189453125	7.195556640625	-1.567474365234375	-7.52704623743038	0	-47.373962	-83.85773	12.477112	73.83975	-100.79094	-10.303194
1448008346384	-0.2698516845703125	7.919189453125	-2.557708740234375	-7.55013616729177	0	-45.57495	-84.90753	13.078308	70.628784	-104.83931	-11.225445
1448008346424	-0.6126251220703125	7.157470703125	-2.350616455078125	-7.758618279872458	0	-45.724487	-86.857605	12.028503	68.107056	-106.07207	-11.3029785
1448008346464	-0.6911773681640625	5.937530517578125	-2.391082763671875	-8.11684546583174	0	-45.124817	-87.15668	11.277771	66.287384	-106.24387	-11.274036
1448008346505	-1.0529937744140625	7.141998291015625	-3.131378173828125	-8.086824915062019	0	-45.724487	-88.65662	8.578491	65.01077	-104.805374	-10.704288
1448008346545	-2.1432037353515625	8.7332763671875	-3.4610595703125	-7.8565594668175	0	-46.624756	-88.957214	7.2280884	64.859436	-103.8469	-10.417154
1448008346586	-3.0072784423828125	11.39453125	-2.952850341796875	-7.475419512388559	0	-47.224426	-91.207886	4.0771484	64.2139	-101.863365	-9.830706
1448008346626	-0.1472625732421875	14.71514892578125	-6.461517333984375	-6.959431403208674	0	-47.224426	-90.60669	5.4275513	63.345642	-102.158585	-9.747222
1448008346666	1.0988616943359375	14.295013427734375	-2.693389892578125	-6.242825985069734	0	-45.724487	-93.0069	6.32782	63.351135	-102.592	-10.160227
1448008346708	0.2109832763671875	8.07391357421875	0.046417236328125	-6.920198418980119	0	-44.22455	-92.85736	9.0286255	64.56213	-103.20264	-10.733235
1448008346748	-0.6649932861328125	6.587371826171875	0.962860107421875	-7.182626172489341	0	-44.374084	-92.707825	7.827759	65.4079	-102.58717	-10.66021
1448008346788	-0.7137908935546875	9.496185302734375	0.5712890625	-6.748220776999737	0	-45.874023	-91.50696	4.827881	66.794525	-99.345	-9.232194
1448008346829	0.9691314697265625	9.81396484375	0.33087158203125	-6.472838176547729	0	-47.224426	-92.10663	3.477478	66.78418	-98.22787	-8.489178
1448008346869	0.7025299072265625	8.3333740234375	1.084259033203125	-6.625379642359368	0	-46.025085	-93.60657	0.32806396	68.789825	-93.95382	-7.648918
1448008346910	-0.9530181884765625	8.8189697265625	0.060699462890625	-6.991169126940502	0	-46.774292	-92.707825	-0.27160645	70.73468	-91.50033	-7.8355403
1448008346950	-2.8442230224609375	8.5809326171875	0.96881103515625	-7.217097995775479	0	-45.724487	-92.55676	-1.171875	72.92929	-89.348335	-7.9817324
1448008346991	-1.5861968994140625	8.613067626953125	0.979522705078125	-6.977042891083979	0	-46.473694	-91.656494	-2.972412	74.40192	-87.04816	-7.640757
1448008347034	-0.8042449951171875	9.5330810546875	0.3189697265625	-6.798642921494255	0	-47.525024	-93.0069	-4.322815	75.09396	-84.96717	-6.5277743
1448008347074	-2.2657928466796875	9.6187744140625	-0.762908935546875	-7.239486322767155	0	-50.524902	-91.35742	-5.822754	76.164764	-83.2175	-4.9998555
1448008347115	-2.8823089599609375	10.119842529296875	-0.213043212890625	-7.156224487653624	0	-53.074646	-90.156555	-6.121826	77.63284	-81.18164	-3.2869356
1448008347155	-2.6668853759765625	10.338836669921875	-0.20947265625	-7.074846234065868	0	-53.224182	-89.85748	-5.671692	77.92151	-80.76924	-1.9185352
1448008347195	0.0645904541015625	12.61328125	1.731719970703125	-6.010603204057636	0	-52.92511	-89.556885	-4.7714233	78.2453	-80.426384	-1.3863086
1448008347236	-0.1294097900390625	13.200042724609375	4.804779052734375	-5.578667646318748	0	-51.27411	-91.05682	-1.4724731	79.35498	-82.18975	-2.2146752
1448008347276	3.0602874755859375	12.2943115234375	1.704345703125	-5.676352464785138	0	-46.324158	-92.85736	4.977417	80.06424	-83.61665	-3.2444978
1448008347316	1.3368988037109375	13.523773193359375	-0.255889892578125	-5.984979649351313	0	-41.82434	-92.707825	14.427185	82.8107	-90.32899	-6.9151115
1448008347357	-2.4752655029296875	8.86419677734375	0.30706787109375	-7.218937126767125	0	-37.625122	-91.95709	22.37854	84.980286	-92.60611	-8.056127
1448008347397	-2.8537445068359375	9.2664794921875	-0.589141845703125	-7.393387796390786	0	-35.37445	-91.95709	25.07782	85.40271	-96.36991	-10.328691
1448008347438	-0.9577789306640625	7.09796142578125	-1.531768798828125	-7.6598783840728055	0	-34.474182	-88.357544	30.027771	81.77222	-102.169365	-11.8266945
1448008347478	0.1574249267578125	6.942047119140625	-2.19708251953125	-7.592465964678924	0	-36.125183	-86.70654	31.077576	77.76309	-105.598595	-11.659852
1448008347518	0.1883697509765625	6.9908447265625	-2.086395263671875	-7.54987245466645	0	-35.523987	-85.95734	31.828308	76.18967	-106.77381	-11.601022
1448008347559	-0.4828948974609375	5.549530029296875	-2.053070068359375	-8.070637712541956	0	-36.724854	-86.857605	30.477905	73.2059	-107.561775	-11.6445465
1448008347599	-1.1589202880859375	5.482879638671875	-2.648162841796875	-8.512074407827692	0	-36.424255	-87.90741	29.278564	72.17328	-106.33703	-11.24004
1448008347639	-1.9622955322265625	9.6473388671875	-3.68719482421875	-7.8071379446605675	0	-38.224792	-89.556885	25.07782	71.56488	-104.29747	-10.439474
1448008347679	-2.6240386962890625	11.73016357421875	-3.14447021484375	-7.364950012166785	0	-38.674927	-90.00702	22.227478	71.19031	-102.19324	-9.807848
1448008347720	-1.5338287353515625	11.72064208984375	-7.8599853515625	-8.281205623804228	0	-38.824463	-90.156555	23.428345	70.635254	-102.29486	-9.613608
1448008347760	-2.3526763916015625	13.74395751953125	-3.2706298828125	-6.9569243614198495	0	-38.974	-89.25781	25.227356	70.67465	-103.070526	-10.065715
1448008347800	2.0831451416015625	13.70587158203125	-2.260162353515625	-6.12844089929253	0	-38.824463	-88.20648	26.127625	70.447754	-104.2253	-9.489683
1448008347841	0.1907501220703125	8.89276123046875	-0.874786376953125	-6.94151274555452	0	-38.37433	-88.20648	27.928162	71.726776	-103.7222	-9.129389
1448008347881	-1.1386871337890625	7.768035888671875	1.524627685546875	-6.943798411595677	0	-37.77466	-87.75787	26.878357	73.711975	-101.96838	-9.302006
1448008347921	0.1907501220703125	8.439300537109375	0.867645263671875	-6.724766791850739	0	-38.07373	-87.30774	25.978088	74.02283	-100.20089	-8.162071
1448008347962	1.7939300537109375	10.80419921875	0.5093994140625	-6.186167886767736	0	-39.424133	-89.70795	22.37854	74.763275	-97.864685	-6.8635697
1448008348002	-0.5650177001953125	8.898712158203125	-0.1094970703125	-6.938813852517013	0	-37.324524	-90.60669	21.32721	77.0596	-94.94374	-6.84868
1448008348043	-1.5516815185546875	9.170074462890625	0.253509521484375	-7.0009089147555255	0	-36.724854	-91.35742	21.478271	80.09079	-92.445274	-7.2464924
1448008348083	-2.6180877685546875	8.632110595703125	1.0711669921875	-7.144798012748518	0	-35.67505	-91.35742	21.028137	82.933685	-90.46118	-7.3195896
1448008348125	-1.2231903076171875	9.151031494140625	0.0428466796875	-6.98335933257348	0	-35.073853	-91.656494	18.62793	84.79834	-88.30272	-6.8944445
1448008348166	-1.8289947509765625	9.279571533203125	-0.470123291015625	-7.164545214192003	0	-35.824585	-92.10663	18.02826	86.45859	-85.73321	-5.4678197
1448008348206	-1.9646759033203125	9.1617431640625	-0.29754638671875	-7.179906094341512	0	-37.625122	-91.656494	17.578125	87.37668	-84.22972	-4.071466
1448008348246	-2.8049468994140625	9.577117919921875	0.094024658203125	-7.186257335631284	0	-38.824463	-91.807556	17.877197	88.056885	-83.14879	-2.5131526
1448008348286	-2.6466522216796875	9.956787109375	0.248748779296875	-7.057257593715874	0	-40.174866	-90.75775	17.578125	88.30524	-82.55222	-1.3556201
1448008348327	-2.0789337158203125	10.548309326171875	0.377288818359375	-6.832265716717279	0	-41.075134	-91.05682	18.478394	88.29349	-82.3567	-0.79526955
1448008348367	-0.6757049560546875	12.57757568359375	2.713623046875	-5.983578449653459	0	-40.625	-90.60669	19.978333	88.1958	-82.64126	-0.7317363
1448008348408	-0.9565887451171875	12.764434814453125	4.62982177734375	-5.752260615256822	0	-38.37433	-89.556885	24.177551	88.96759	-84.103935	-2.0001116
1448008348448	3.1436004638671875	10.5899658203125	1.84716796875	-5.859356119400564	0	-33.87451	-87.90741	30.477905	89.40497	-87.567726	-4.1537952
1448008348489	2.5235137939453125	11.517120361328125	-0.536773681640625	-6.1318400794565076	0	-30.725098	-84.30786	39.178467	90.052155	-92.69799	-5.9153967
1448008348529	-2.3038787841796875	9.4759521484375	0.058319091796875	-7.117661091051957	0	-26.67389	-79.50745	46.228027	91.76172	-96.90445	-7.863941
1448008348569	-3.3750457763671875	10.69232177734375	-1.02117919921875	-7.2973975765678425	0	-24.874878	-77.10724	50.87738	91.543	-100.43694	-9.685496
1448008348610	-0.8292388916015625	7.922760009765625	-2.150665283203125	-7.583346565287497	0	-26.074219	-74.40643	52.078247	90.091064	-102.19888	-10.328493
1448008348650	-0.8149566650390625	7.241973876953125	-2.818359375	-7.906953233647354	0	-29.82483	-71.85669	52.37732	83.37622	-106.50949	-11.118965
1448008348691	-1.4076690673828125	7.513336181640625	-2.294677734375	-7.854424449522325	0	-31.774902	-72.15729	51.028442	79.79291	-107.42693	-11.407893
1448008348732	-1.2529449462890625	5.3817138671875	-1.591278076171875	-8.213649641474486	0	-34.024048	-72.30682	49.528503	76.972015	-107.27269	-11.344522
1448008348772	-1.0684661865234375	7.271728515625	-2.3756103515625	-7.850161404608091	0	-36.724854	-73.80676	48.028564	74.90726	-106.553474	-10.788411
1448008348813	-0.9649200439453125	8.405975341796875	-2.783843994140625	-7.6485427014764085	0	-38.07373	-73.80676	46.67816	73.9151	-105.206116	-10.033407
1448008348855	-2.0967864990234375	11.270751953125	-0.685546875	-6.8931109268951145	0	-40.174866	-75.756836	44.877625	73.12039	-102.73538	-8.858546
1448008348895	-2.7192535400390625	11.9658203125	-8.00994873046875	-8.69456670823568	0	-41.82434	-74.2569	45.777893	72.20526	-103.2506	-8.393783
1448008348936	-4.0260772705078125	12.318115234375	-3.809783935546875	-7.689466553964934	0	-42.72461	-72.906494	46.528625	71.93805	-103.53647	-8.528402
1448008348976	0.7037200927734375	13.240509033203125	-0.9473876953125	-6.2014867659026205	0	-41.22467	-72.60742	47.877502	71.87933	-103.76995	-10.16339
1448008349017	2.3604583740234375	9.146270751953125	-0.08331298828125	-6.426745544894675	0	-42.874146	-73.35663	45.477295	71.56326	-102.889626	-10.180472
1448008349057	-0.5578765869140625	5.661407470703125	1.41632080078125	-7.253199975606972	0	-43.774414	-72.457886	44.578552	70.703064	-101.67338	-9.025127
1448008349098	0.3668975830078125	8.820159912109375	0.696258544921875	-6.66282582871494	0	-46.774292	-70.65735	43.82782	70.55887	-101.29044	-8.34234
1448008349139	1.2369232177734375	11.31121826171875	-1.272308349609375	-6.448649266310952	0	-50.074768	-71.10748	40.678406	69.37021	-98.72065	-5.502495
1448008349179	-0.5293121337890625	7.9810791015625	0.129730224609375	-7.053148131457022	0	-49.923706	-72.457886	39.178467	69.976715	-96.25989	-5.831191
1448008349220	-2.3990936279296875	8.877288818359375	0.4903564453125	-7.166798561303864	0	-47.824097	-75.6073	37.527466	71.54443	-93.605804	-6.614545
1448008349260	-2.3788604736328125	8.45001220703125	0.3380126953125	-7.274967240551873	0	-48.8739	-75.756836	35.87799	72.00952	-91.768974	-6.531146
1448008349301	-1.6742706298828125	8.803497314453125	0.4427490234375	-7.05487768333943	0	-50.524902	-76.657104	34.37805	71.55682	-90.36089	-6.2354436
1448008349341	-1.4564666748046875	9.25933837890625	0.24993896484375	-6.968852536086885	0	-52.474976	-77.10724	32.42798	71.02026	-88.63754	-4.962726
1448008349381	-1.8885040283203125	8.732086181640625	0.139251708984375	-7.164094775349595	0	-55.62439	-76.35651	30.177307	70.48169	-87.109665	-3.8000855
1448008349421	-1.5373992919921875	9.42120361328125	0.13330078125	-6.975150706345059	0	-58.47473	-76.057434	29.127502	69.99884	-85.639175	-2.3319855
1448008349462	-1.5397796630859375	10.45428466796875	0.370147705078125	-6.7595271899147304	0	-61.325073	-74.70703	28.527832	69.74469	-84.51663	-0.9023241
1448008349502	-2.6371307373046875	10.103179931640625	0.8140869140625	-6.929077435640436	0	-63.723755	-74.2569	28.677368	69.85947	-84.01995	0.04343318
1448008349543	-0.3353118896484375	12.419281005859375	1.1473388671875	-6.16911350746172	0	-64.17389	-74.557495	28.677368	69.52533	-83.87999	0.1346385
1448008349583	-1.4267120361328125	13.616607666015625	3.540802001953125	-5.840405648756488	0	-62.825012	-74.70703	30.027771	69.749146	-84.73045	-0.8224872
1448008349624	3.1305084228515625	10.585205078125	0.76885986328125	-6.000739602631514	0	-60.424805	-76.80664	33.328247	69.99002	-87.01426	-2.8583493
1448008349667	3.4435272216796875	10.45428466796875	-0.470123291015625	-6.142218933758006	0	-56.974792	-74.70703	39.778137	70.66168	-91.227516	-4.962267
1448008349707	-2.3943328857421875	9.50689697265625	-0.789093017578125	-7.291948718144813	0	-51.87378	-70.35675	50.128174	73.49155	-97.7335	-7.90145
1448008349749	-3.7868499755859375	9.80206298828125	-1.0426025390625	-7.5766649171707225	0	-51.574707	-69.607544	51.028442	73.693115	-99.40914	-8.916337
1448008349790	-0.5388336181640625	7.265777587890625	-1.941192626953125	-7.618963983023355	0	-54.72412	-68.40668	49.528503	69.07022	-104.30559	-10.714162
1448008349830	-0.0984649658203125	7.1241455078125	-2.68505859375	-7.7231840673926415	0	-56.22406	-68.25714	48.1781	64.699554	-106.560936	-10.780862
1448008349870	-0.1615447998046875	7.503814697265625	-2.314910888671875	-7.56442270799362	0	-58.47473	-70.207214	45.777893	61.63492	-107.05892	-10.788007
1448008349911	-0.6328582763671875	5.68878173828125	-2.009033203125	-8.061065623716031	0	-59.375	-70.95795	43.078613	59.696655	-106.914795	-10.808728
1448008349951	-1.2255706787109375	6.489776611328125	-2.676727294921875	-8.198035845949775	0	-61.47461	-73.957825	40.527344	58.87085	-106.00156	-10.62675
1448008349992	-1.5814361572265625	8.972503662109375	-3.54437255859375	-7.845300699462455	0	-62.223816	-76.35651	38.2782	58.89615	-104.4566	-10.343207
1448008350032	-2.5585784912109375	11.00177001953125	-3.628875732421875	-7.612445083888004	0	-63.723755	-76.50757	37.228394	58.73593	-102.60569	-9.880208
1448008350072	-2.6133270263671875	11.15411376953125	-6.31036376953125	-8.313139932360823	0	-65.07416	-78.30658	36.17859	58.181274	-102.17904	-9.559746
1448008350113	-3.4036102294921875	14.485443115234375	-1.761474609375	-6.753673817406128	0	-65.07416	-79.35791	35.427856	57.732788	-102.68416	-10.1981945
1448008350153	0.8620147705078125	14.909149169921875	-1.43060302734375	-6.01970669372823	0	-63.723755	-79.80652	35.728455	57.062256	-103.273026	-11.010406
1448008350193	0.8751068115234375	6.992034912109375	-1.150909423828125	-7.215030533478855	0	-64.02435	-82.65686	32.42798	56.823822	-102.05354	-11.331326
1448008350234	-0.2853240966796875	4.95086669921875	0.105926513671875	-7.6222307280565085	0	-64.775085	-81.90765	31.977844	56.79413	-101.29894	-10.842365
1448008350274	0.0895843505859375	10.908935546875	0.151153564453125	-6.467487324166184	0	-67.17377	-81.30646	30.778503	57.53473	-100.66557	-9.781002
1448008350314	-0.0722808837890625	10.605438232421875	-1.79241943359375	-6.850126101072586	0	-68.52417	-81.15692	28.378296	57.156128	-98.7248	-7.9712477
1448008350354	-1.3422088623046875	7.4478759765625	0.60223388671875	-7.216638417084809	0	-67.474365	-86.10687	24.328613	57.603302	-96.21755	-8.093165
1448008350396	-1.7897186279296875	8.92608642578125	0.6807861328125	-7.010682631645909	0	-67.32483	-87.30774	22.37854	59.368896	-92.07956	-8.466706
1448008350436	-1.8147125244140625	8.97369384765625	0.551055908203125	-7.029904620336376	0	-68.2251	-88.20648	21.028137	59.38446	-91.08128	-8.141682
1448008350476	-1.0672760009765625	8.872528076171875	0.70697021484375	-6.889028700093336	0	-70.47424	-89.10675	17.727661	59.666138	-88.20107	-7.052833
1448008350517	-0.9268341064453125	8.865386962890625	0.562957763671875	-6.890864994873987	0	-70.92438	-89.25781	15.1779175	59.81656	-87.164055	-6.5856423
1448008350557	-1.9480133056640625	9.214111328125	-0.218994140625	-7.151961817151735	0	-75.27466	-88.20648	12.77771	60.273804	-84.7624	-4.6416364
1448008350597	-1.9099273681640625	10.017486572265625	0.158294677734375	-6.931560194738873	0	-77.22473	-87.75787	11.128235	60.71884	-83.3186	-3.133039
1448008350638	-1.7920989990234375	10.467376708984375	-0.067840576171875	-6.8727565935126895	0	-78.72467	-86.10687	10.977173	60.93155	-82.81754	-2.4486048
1448008350678	-1.2124786376953125	11.438568115234375	0.2237548828125	-6.573978098145165	0	-79.32434	-87.00714	10.827637	61.481537	-82.25629	-1.0313374
1448008350718	-1.4671783447265625	12.474029541015625	1.008087158203125	-6.20528535627808	0	-79.174805	-87.75787	10.678101	61.498413	-82.32677	-1.0482329
1448008350759	1.1548004150390625	13.392852783203125	4.442962646484375	-5.448777625840337	0	-74.22485	-91.50696	14.877319	62.23758	-84.34892	-3.0792303
1448008350799	3.0138702392578125	10.607818603515625	0.401092529296875	-6.061899561771287	0	-70.02411	-93.15643	23.57788	63.40738	-88.25618	-5.145612
1448008350839	1.1714630126953125	10.89703369140625	-0.760528564453125	-6.443867756771521	0	-67.77496	-91.656494	28.82843	65.51672	-93.2992	-6.846877
1448008350880	-3.2048492431640625	9.374786376953125	-0.45465087890625	-7.415933512410646	0	-61.775208	-90.00702	40.678406	67.53833	-97.3793	-8.801477
1448008350920	-2.6775970458984375	9.131988525390625	-1.086639404296875	-7.48975903109529	0	-60.124207	-88.957214	42.477417	66.80383	-101.20695	-10.3935795
1448008350961	0.2716827392578125	6.316009521484375	-2.370849609375	-7.753104772012559	0	-60.87494	-86.40747	43.22815	63.629852	-104.93467	-10.734391
1448008351001	0.1871795654296875	6.870635986328125	-2.869537353515625	-7.7600716717713905	0	-62.374878	-86.70654	42.178345	60.3172	-107.46996	-10.330594
1448008351042	-0.1377410888671875	7.081298828125	-2.691009521484375	-7.744429246213244	0	-62.524414	-87.30774	41.278076	58.32083	-108.19982	-10.170168
1448008351082	-0.7126007080078125	5.728057861328125	-2.57318115234375	-8.243821704470989	0	-62.825012	-88.50708	39.6286	57.35663	-107.650024	-9.930425
1448008351124	-1.6349945068359375	7.68353271484375	-3.83477783203125	-8.318728911505918	0	-64.17389	-90.45715	36.027527	57.160248	-106.33579	-9.440964
1448008351165	-2.0729827880859375	9.55450439453125	-4.5369873046875	-8.09063546022716	0	-64.17389	-93.15643	33.177185	57.54196	-104.28139	-9.057527
1448008351207	-1.3005523681640625	12.086029052734375	-3.61578369140625	-7.128971759716434	0	-64.62402	-94.3573	31.227112	57.22644	-102.20944	-8.531277
1448008351247	-1.8504180908203125	14.045074462890625	-5.209442138671875	-7.163644413275463	0	-65.374756	-94.506836	32.728577	56.789917	-102.6907	-8.4824095
1448008351287	0.1836090087890625	13.68682861328125	-2.460113525390625	-6.428682875990044	0	-62.374878	-94.95697	34.228516	56.378204	-104.28389	-9.488949
1448008351328	0.4121246337890625	8.496429443359375	0.070220947265625	-6.8101395840401855	0	-61.325073	-94.3573	34.977722	56.808807	-104.28951	-9.91565
1448008351368	-0.4257659912109375	5.50311279296875	0.1951904296875	-7.510399392159885	0	-61.17401	-94.95697	34.077454	57.51535	-103.06388	-9.474525
1448008351408	-0.7852020263671875	9.5806884765625	1.00213623046875	-6.676484557933355	0	-62.524414	-94.20776	31.677246	57.78174	-101.808846	-8.462582
1448008351449	0.7418060302734375	10.607818603515625	-0.898590087890625	-6.573794013569877	0	-64.17389	-94.6579	27.778625	57.373688	-99.548805	-7.347876
1448008351489	-0.5388336181640625	8.225067138671875	-0.24517822265625	-7.078770221980197	0	-63.57422	-96.15784	26.428223	57.61255	-98.15182	-7.3210096
1448008351529	-1.2362823486328125	8.674957275390625	0.4808349609375	-6.992437622365171	0	-62.07428	-97.506714	22.677612	59.581543	-94.15818	-7.6217566
1448008351570	-1.5980987548828125	8.65472412109375	0.88311767578125	-6.988845035140176	0	-63.275146	-98.10791	20.277405	60.31897	-91.9381	-7.070954
1448008351610	-1.6457061767578125	8.62139892578125	0.432037353515625	-7.084885448005418	0	-63.124084	-99.45679	17.12799	60.62863	-89.66908	-6.421644
1448008351651	-1.5005035400390625	9.2664794921875	0.26898193359375	-6.971999871985082	0	-64.32495	-100.357056	14.427185	61.04727	-87.41671	-5.7409377
1448008351691	-1.8028106689453125	8.80706787109375	-0.06427001953125	-7.130083221530325	0	-64.17389	-100.05646	13.227844	61.19348	-86.51558	-5.2085133
1448008351732	-1.6826019287109375	9.439056396484375	-0.40704345703125	-7.095620285811384	0	-67.77496	-97.95685	9.628296	61.35251	-84.26748	-2.8059387
1448008351772	-1.7647247314453125	10.386444091796875	-0.39990234375	-6.939228901484573	0	-69.573975	-97.506714	9.477234	61.38739	-83.62989	-2.0847058
1448008351813	-2.0408477783203125	10.207916259765625	0.789093017578125	-6.813915335852533	0	-70.92438	-96.75751	9.178162	61.578217	-82.62698	-0.52895784
1448008351853	-1.6135711669921875	12.519256591796875	3.6610107421875	-5.989965858902351	0	-69.87457	-95.85724	10.528564	61.50351	-82.79913	-0.1301989
1448008351894	-2.0789337158203125	13.859405517578125	4.169219970703125	-5.812893479427796	0	-66.5741	-97.35718	13.827515	62.05237	-84.08649	-1.1372807
1448008351934	3.4387664794921875	11.71588134765625	0.3189697265625	-5.87294806398546	0	-61.924744	-97.80731	20.72754	62.38745	-89.7141	-4.0766973
1448008351974	1.4059295654296875	11.30169677734375	-0.432037353515625	-6.302946337142066	0	-58.174133	-95.25757	29.727173	63.58429	-94.98087	-5.668157
1448008352015	-1.1006011962890625	9.303375244140625	-0.186859130859375	-6.975360886644826	0	-53.52478	-93.307495	37.9776	64.56537	-97.10019	-6.6510367
1448008352055	-2.6490325927734375	8.736846923828125	-1.31634521484375	-7.6222307280565085	0	-50.67444	-89.25781	42.477417	64.41583	-102.86177	-9.27081
1448008352095	-0.0972747802734375	6.28387451171875	-1.989990234375	-7.758037211831105	0	-51.724243	-87.90741	43.678284	61.01178	-106.56707	-9.7312355
1448008352136	0.2895355224609375	6.292205810546875	-2.6279296875	-7.818180616291469	0	-52.174377	-87.00714	43.22815	59.083954	-107.99689	-9.6414385
1448008352176	-0.4745635986328125	6.88134765625	-2.667205810546875	-7.872801084116988	0	-52.92511	-86.257935	40.977478	55.11606	-109.356964	-9.567279
1448008352217	-1.1220245361328125	5.21746826171875	-2.427978515625	-8.515296313812689	0	-52.62451	-87.75787	39.027405	53.977478	-108.558205	-9.518251
1448008352257	-1.2910308837890625	5.030609130859375	-2.774322509765625	-8.824125706542564	0	-52.62451	-89.10675	38.127136	53.73813	-107.882996	-9.388842
1448008352298	-2.0182342529296875	10.086517333984375	-4.275146484375	-7.859002352466073	0	-52.774048	-89.556885	34.228516	53.673492	-106.00336	-9.000111
1448008352338	-2.0325164794921875	11.85870361328125	-3.92999267578125	-7.401291869604138	0	-53.37372	-91.656494	32.577515	53.492188	-103.790276	-8.475809
1448008352379	-3.2643585205078125	11.13507080078125	-7.461273193359375	-9.16672572569757	0	-55.174255	-91.207886	31.227112	51.86078	-103.61634	-7.8004355
1448008352419	-3.7820892333984375	15.13409423828125	-2.180419921875	-6.7781375051013395	0	-53.37372	-91.207886	31.677246	51.22119	-104.532234	-8.876013
1448008352459	1.9105682373046875	10.93511962890625	0.339202880859375	-6.175499512947856	0	-49.923706	-92.25769	30.32837	51.2034	-103.71447	-10.024164
1448008352500	0.1205291748046875	7.677581787109375	-0.208282470703125	-7.051635664257894	0	-51.42517	-92.10663	28.227234	49.871887	-102.53422	-9.311741
1448008352540	-0.7709197998046875	5.754241943359375	0.931915283203125	-7.374473887571243	0	-53.224182	-90.00702	26.428223	48.98291	-102.51907	-7.996969
1448008352580	1.0203094482421875	10.57806396484375	-0.53558349609375	-6.480522743381899	0	-56.52466	-88.80768	22.677612	47.763367	-101.08913	-5.938241
1448008352621	0.3085784912109375	10.203155517578125	-0.917633056640625	-6.709165424072941	0	-56.52466	-88.957214	18.327332	47.074554	-98.185295	-5.188446
1448008352661	-1.9515838623046875	8.115570068359375	0.424896240234375	-7.239718147189267	0	-54.574585	-92.10663	15.028381	48.04364	-95.10609	-6.068423
1448008352701	-2.1027374267578125	8.29052734375	0.405853271484375	-7.238790975076892	0	-55.474854	-93.15643	12.327576	48.5307	-92.54452	-6.2377563
1448008352741	-1.7897186279296875	8.9141845703125	0.22137451171875	-7.096278902029953	0	-55.924988	-93.15643	9.178162	48.170044	-90.8059	-5.6074743
1448008352782	-0.9899139404296875	8.8380126953125	0.058319091796875	-6.994764683577701	0	-57.87506	-92.25769	6.32782	48.00174	-88.92494	-4.6804957
1448008352824	-1.4921722412109375	8.724945068359375	-0.352294921875	-7.183533492022469	0	-58.174133	-92.85736	5.278015	47.73523	-87.127014	-3.3815334
1448008352864	-1.8896942138671875	9.891326904296875	0.158294677734375	-6.950041341725315	0	-61.17401	-91.207886	2.2781372	47.612152	-85.78457	-1.8524855
1448008352904	-1.5588226318359375	10.624481201171875	0.024993896484375	-6.79152911097926	0	-63.874817	-89.10675	0.9277344	47.53076	-84.58671	-0.5585612
1448008352945	-1.5112152099609375	11.690887451171875	0.12139892578125	-6.597071815516774	0	-64.92462	-88.50708	0.4776001	47.305878	-84.258064	0.4421584
1448008352986	-0.2531890869140625	13.045318603515625	1.4710693359375	-6.029934956269081	0	-63.57422	-90.60669	0.77819824	46.97821	-84.48169	0.33470848
1448008353026	1.0583953857421875	12.4276123046875	3.9276123046875	-5.633637024473235	0	-59.524536	-92.55676	3.9276123	46.376343	-87.15769	-2.522054
1448008353066	4.4051971435546875	11.895599365234375	-0.222564697265625	-5.7968329479727325	0	-55.32379	-94.506836	10.227966	46.000275	-89.042206	-3.7423563
1448008353106	1.5844573974609375	11.743255615234375	-0.88787841796875	-6.279585030549691	0	-51.574707	-92.85736	20.277405	47.58792	-96.651375	-6.455376
1448008353147	-3.6511688232421875	9.334320068359375	-0.451080322265625	-7.51922794393838	0	-47.07489	-91.50696	28.378296	48.98929	-98.73596	-7.5345674
1448008353187	-2.9894256591796875	8.3714599609375	-1.685302734375	-7.883911370142629	0	-44.674683	-89.556885	31.378174	48.9234	-104.01257	-10.208958
1448008353229	-0.2722320556640625	6.225555419921875	-2.18756103515625	-7.866042778709795	0	-45.274353	-88.357544	32.278442	45.060028	-107.289795	-10.510339
1448008353270	0.2193145751953125	6.70758056640625	-2.8231201171875	-7.780822365506504	0	-46.025085	-88.20648	30.778503	41.176453	-109.22327	-10.158786
1448008353310	-0.1544036865234375	5.786376953125	-2.4422607421875	-8.020623369577848	0	-46.17462	-89.70795	29.278564	38.64499	-109.4007	-9.950073
1448008353351	-0.9661102294921875	6.073211669921875	-2.8326416015625	-8.298468759402157	0	-47.07489	-91.656494	27.17743	37.623108	-108.49077	-9.825917
1448008353392	-1.3386383056640625	7.375274658203125	-3.136138916015625	-8.103515317277663	0	-47.525024	-92.10663	25.227356	37.49594	-107.15974	-9.667643
1448008353432	-1.8016204833984375	10.376922607421875	-3.002838134765625	-7.445993300598802	0	-46.473694	-94.0567	23.57788	37.896393	-105.44138	-9.567144
1448008353473	-2.2277069091796875	10.79229736328125	-5.69622802734375	-8.11297594881337	0	-48.423767	-94.95697	21.177673	37.578552	-103.82856	-8.866
1448008353513	-3.6618804931640625	11.245758056640625	-5.435577392578125	-8.340891921664332	0	-48.124695	-96.006775	21.928406	36.77997	-103.887474	-8.628154
1448008353554	-1.3588714599609375	14.411651611328125	-1.700775146484375	-6.437326338677309	0	-47.525024	-95.407104	21.928406	36.164795	-104.44865	-9.354285
1448008353594	2.0879058837890625	11.03033447265625	-0.165435791015625	-6.207599504663873	0	-45.274353	-97.35718	20.428467	35.42993	-103.846306	-10.024018
1448008353635	0.6608734130859375	8.610687255859375	-1.361572265625	-6.867487556079588	0	-46.473694	-97.506714	17.877197	34.21118	-102.61788	-9.661163
1448008353675	-0.6530914306640625	6.27197265625	1.838836669921875	-7.075717744114951	0	-47.97516	-95.55664	18.177795	34.34552	-102.459145	-8.675225
1448008353716	0.7798919677734375	10.812530517578125	-0.134490966796875	-6.421643350564931	0	-50.224304	-94.807434	16.227722	33.486267	-100.54837	-6.4727945
1448008353756	0.4275970458984375	10.566162109375	-1.386566162109375	-6.70705277610357	0	-51.574707	-95.7077	10.827637	33.05655	-97.88676	-5.856462
1448008353797	-0.5769195556640625	8.934417724609375	-0.258270263671875	-6.960685752297965	0	-50.224304	-96.45691	9.628296	33.839905	-96.47642	-6.328885
1448008353837	-2.1277313232421875	8.805877685546875	0.562957763671875	-7.115670025813276	0	-49.324036	-97.95685	7.6782227	36.498108	-92.70042	-7.0235744
1448008353877	-2.0110931396484375	8.701141357421875	0.24517822265625	-7.17311819060209	0	-50.823975	-97.506714	6.1782837	37.242706	-91.09491	-6.5760283
1448008353919	-1.3588714599609375	8.95465087890625	0.010711669921875	-7.048613218148573	0	-51.124573	-97.95685	5.128479	37.62683	-89.19744	-5.879206
1448008353959	-1.7087860107421875	8.948699951171875	-0.2618408203125	-7.16499572984196	0	-52.62451	-97.657776	2.7282715	37.728394	-87.390915	-4.961545
1448008354000	-1.5873870849609375	8.99273681640625	-0.372528076171875	-7.154653232948776	0	-54.42505	-96.30737	0.32806396	37.67099	-85.94458	-4.371936
1448008354040	-1.4671783447265625	9.919891357421875	0.074981689453125	-6.88637831284191	0	-56.974792	-96.606445	-1.6220093	37.667603	-85.224205	-2.96432
1448008354080	-2.0753631591796875	10.661376953125	0.717681884765625	-6.756403993394697	0	-60.124207	-95.407104	-2.2216797	37.866364	-83.76446	-1.0299711
1448008354121	-1.3184051513671875	11.0279541015625	0.42608642578125	-6.622948735182108	0	-60.57434	-94.807434	-2.3727417	37.775513	-83.386734	-0.31826967
1448008354161	-0.9101715087890625	13.285736083984375	3.0897216796875	-5.874007184199868	0	-58.924866	-96.30737	-0.27160645	37.79712	-83.63955	-0.47413838
1448008354201	-0.3400726318359375	13.438079833984375	3.89190673828125	-5.684717670234909	0	-57.424927	-96.90704	1.6784668	38.60144	-85.16606	-2.023837
1448008354242	2.7865447998046875	10.543548583984375	0.0142822265625	-6.153604570171	0	-51.574707	-97.35718	12.927246	39.378693	-88.74336	-4.1674457
1448008354282	1.9010467529296875	11.1993408203125	-0.634368896484375	-6.275875049404469	0	-49.624634	-97.35718	18.327332	40.57312	-94.006584	-5.720099
1448008354322	-4.3295745849609375	10.3804931640625	-0.970001220703125	-7.552510969283059	0	-45.57495	-94.95697	29.4281	42.409973	-98.40531	-7.290641
1448008354363	-3.3488616943359375	10.062713623046875	-1.30206298828125	-7.480274799081244	0	-44.973755	-92.707825	31.227112	42.27832	-101.99518	-8.708973
1448008354403	-0.1841583251953125	7.1717529296875	-1.893585205078125	-7.549608772853987	0	-44.525146	-91.05682	32.878113	38.900024	-105.65709	-9.165008
1448008354443	0.0193634033203125	6.880157470703125	-3.41107177734375	-7.938860966655221	0	-45.724487	-91.05682	31.227112	34.957916	-108.223854	-8.820319
1448008354484	-0.0520477294921875	7.089630126953125	-3.17779541015625	-7.841965940612683	0	-45.724487	-91.95709	30.627441	32.265686	-109.060104	-8.740721
1448008354524	-0.8637542724609375	5.56024169921875	-2.457733154296875	-8.310353271528744	0	-45.724487	-94.0567	27.627563	30.416382	-107.98551	-8.8339205
1448008354564	-0.8863677978515625	6.056549072265625	-2.751708984375	-8.251456183486857	0	-46.17462	-93.307495	26.878357	30.211243	-107.35585	-8.796153
1448008354605	-1.8289947509765625	9.91156005859375	-3.92047119140625	-7.766478896680166	0	-46.473694	-96.006775	23.727417	30.34729	-104.870575	-8.471951
1448008354646	-2.0896453857421875	10.261474609375	-4.064483642578125	-7.7799412766193985	0	-47.373962	-97.35718	22.37854	30.286865	-103.91951	-8.2026205
1448008354686	-3.6321258544921875	10.79229736328125	-7.57672119140625	NaN	0	-47.224426	-97.05658	22.227478	29.495148	-103.28283	-7.8132033
1448008354727	-4.1736602783203125	15.135284423828125	-2.19232177734375	-7.899137686981486	0	-44.973755	-97.80731	22.227478	29.189148	-103.68306	-8.693912
1448008354767	1.0393524169921875	13.68206787109375	-0.42132568359375	-6.025053411037728	0	-41.973877	-98.55652	21.028137	27.973206	-103.355385	-9.911973
1448008354807	1.3999786376953125	7.289581298828125	-0.727203369140625	-6.984835203390826	0	-43.32428	-97.80731	18.327332	26.446686	-102.3072	-9.5639715
1448008354848	-0.3805389404296875	5.099639892578125	1.029510498046875	-7.408973788474251	0	-43.774414	-97.35718	19.078064	25.69159	-102.26677	-8.660565
1448008354888	0.3228607177734375	10.49713134765625	0.45703125	-6.4484720519566725	0	-46.324158	-97.35718	16.827393	24.863953	-100.82983	-6.7621617
1448008354928	0.5644683837890625	10.95892333984375	-1.666259765625	-6.6669930249141345	0	-47.97516	-96.45691	11.877441	24.08316	-99.54417	-5.942951
1448008354968	-0.9280242919921875	8.05963134765625	0.40704345703125	-7.060939694591606	0	-46.17462	-97.95685	8.427429	24.520569	-95.544365	-6.5061264
1448008355009	-2.1812896728515625	8.5	0.656982421875	-7.16544632233877	0	-45.724487	-97.657776	5.7281494	25.470306	-93.013275	-6.822363
1448008355049	-2.1134490966796875	8.53094482421875	0.403472900390625	-7.194901581742316	0	-46.025085	-97.506714	3.327942	25.529907	-91.269135	-6.3286214
1448008355089	-0.9732513427734375	9.079620361328125	0.134490966796875	-6.935910189980191	0	-46.92383	-97.80731	0.32806396	25.475708	-89.46621	-5.607112
1448008355129	-1.6730804443359375	8.601165771484375	-0.155914306640625	-7.204260471708618	0	-48.724365	-97.35718	-2.2216797	25.261017	-87.57353	-4.6249137
1448008355170	-1.5516815185546875	8.79754638671875	0.058319091796875	-7.103974617161872	0	-49.923706	-96.30737	-1.9226074	25.227509	-86.11255	-3.297896
1448008355210	-1.4267120361328125	10.088897705078125	0.198760986328125	-6.829865773490445	0	-51.124573	-94.6579	-3.8726807	25.171478	-84.706856	-1.887168
1448008355251	-1.8742218017578125	10.781585693359375	0.83551025390625	-6.685242259287184	0	-51.724243	-94.6579	-4.472351	25.20288	-83.81149	-0.7904863
1448008355291	0.2871551513671875	12.62518310546875	0.676025390625	-6.120360229249739	0	-52.92511	-93.15643	-4.472351	24.957397	-83.37506	0.08903582
1448008355331	-0.3936309814453125	12.419281005859375	2.007843017578125	-6.060469590898871	0	-51.27411	-93.15643	-3.4225464	24.95816	-83.55946	-0.15701003
1448008355372	0.2681121826171875	13.32977294921875	3.56103515625	-5.664267289064537	0	-47.97516	-93.45703	-0.27160645	25.435974	-84.98283	-1.5211022
1448008355412	3.1626434326171875	10.57806396484375	0.10235595703125	-6.085973257837843	0	-41.523743	-92.10663	10.977173	26.181915	-91.1452	-4.413218
1448008355453	2.1700286865234375	11.623046875	-0.62841796875	-6.178286673842315	0	-39.12506	-90.45715	15.777588	26.799377	-93.81063	-5.2328143
1448008355493	-3.7321014404296875	10.276947021484375	-0.786712646484375	-7.406989003490292	0	-34.62372	-85.65674	25.227356	28.918793	-100.25914	-7.8685694
1448008355534	-1.5885772705078125	8.177459716796875	-1.507965087890625	-7.552510969283059	0	-32.824707	-83.25653	27.778625	27.407166	-104.05603	-9.139809
1448008355574	0.1348114013671875	6.177947998046875	-2.129241943359375	-7.761235128869499	0	-33.573914	-81.75659	28.82843	23.826202	-107.487366	-9.397615
1448008355615	-0.0960845947265625	6.77423095703125	-3.1182861328125	-7.91984081306273	0	-33.87451	-79.80652	28.677368	22.009552	-108.738846	-9.324373
1448008355655	-0.4198150634765625	6.59808349609375	-2.324432373046875	-7.843481037845563	0	-33.27484	-78.756714	27.328491	18.47705	-109.74113	-9.425979
1448008355695	-1.0149078369140625	5.32220458984375	-2.51605224609375	-8.468226170744535	0	-33.87451	-79.05731	24.928284	18.197144	-108.92207	-9.368159
1448008355736	-1.2719879150390625	7.446685791015625	-3.538421630859375	-8.182938629788469	0	-33.87451	-79.20685	22.528076	18.656952	-107.43928	-8.980346
1448008355776	-1.7040252685546875	10.122222900390625	-4.316802978515625	-7.781409971059428	0	-34.324646	-78.45764	20.578003	19.513062	-105.34133	-8.523438
1448008355817	-2.0551300048828125	11.469512939453125	-1.569854736328125	-7.005791509895367	0	-34.77478	-77.856445	19.078064	19.74643	-104.27927	-8.286323
1448008355858	-1.7147369384765625	11.379058837890625	-8.482452392578125	-8.719461781172265	0	-34.17511	-76.057434	19.377136	20.08081	-104.0413	-8.321633
1448008355898	-3.8356475830078125	15.037689208984375	-2.96832275390625	-6.937154256991375	0	-34.77478	-74.85657	19.377136	20.170044	-104.81224	-8.607652
1448008355938	1.7713165283203125	12.4561767578125	-2.022125244140625	-6.312981812219288	0	-33.87451	-72.30682	17.12799	20.142914	-105.04567	-9.0025625
1448008355979	0.6442108154296875	7.4573974609375	-1.00927734375	-7.143456944770486	0	-33.724976	-70.207214	15.628052	20.04773	-104.53545	-8.800778
1448008356019	-0.7506866455078125	8.55950927734375	1.479400634765625	-6.758941346771007	0	-34.62372	-69.607544	13.827515	20.904083	-103.8936	-8.583953
1448008356059	0.3561859130859375	11.010101318359375	-0.017852783203125	-6.437856250730521	0	-36.57379	-67.95654	12.628174	20.940735	-102.531364	-6.9467688
1448008356100	0.5287628173828125	10.26861572265625	-1.041412353515625	-6.683145792472148	0	-36.87439	-67.20734	7.3776245	21.109894	-100.13461	-6.056762
1448008356140	-0.8197174072265625	8.029876708984375	0.08807373046875	-7.105075794625085	0	-36.27472	-66.607666	6.477356	22.73349	-97.27188	-6.568856
1448008356180	-1.0399017333984375	8.9903564453125	0.15948486328125	-6.9588044358494905	0	-36.57379	-66.7572	3.477478	25.810608	-93.92791	-6.314145
1448008356221	-1.4409942626953125	8.624969482421875	-0.063079833984375	-7.138099412452343	0	-37.625122	-66.00647	2.4276733	26.703003	-92.95903	-6.1161036
1448008356261	-2.2360382080078125	9.046295166015625	0.13330078125	-7.171536862377333	0	-37.324524	-64.356995	0.32806396	29.310944	-89.94146	-5.418658
1448008356301	-2.0622711181640625	8.88800048828125	-0.605804443359375	-7.312622268191271	0	-38.674927	-63.30719	-1.6220093	30.001984	-89.035706	-5.041021
1448008356342	-1.7325897216796875	8.82373046875	-0.447509765625	-7.2290758039069125	0	-39.274597	-61.657715	-2.0721436	30.90393	-87.545784	-3.7936182
1448008356382	-1.4160003662109375	10.01629638671875	-0.05474853515625	-6.883323159645744	0	-42.42401	-58.05664	-4.472351	32.134033	-85.65915	-1.7851436
1448008356422	-1.3564910888671875	10.28765869140625	0.3760986328125	-6.7558187499999995	0	-43.624878	-57.006836	-5.3726196	32.63269	-85.21324	-1.2781677
1448008356463	-0.5638275146484375	11.105316162109375	-0.05712890625	-6.568643894489775	0	-43.774414	-56.407166	-5.671692	33.62677	-84.65307	-0.40695122
1448008356503	-1.6564178466796875	11.775390625	2.06378173828125	-6.316219717480405	0	-44.374084	-55.056763	-6.121826	35.566742	-84.71296	-0.30468252
1448008356544	-1.7575836181640625	12.91558837890625	2.9326171875	-6.161922216236263	0	-43.774414	-53.85742	-5.671692	36.527344	-85.24779	-0.90393275
1448008356585	2.8258209228515625	9.691375732421875	1.810272216796875	-6.021435687573085	0	-41.523743	-55.95703	-2.3727417	37.708008	-89.62329	-3.8391058
1448008356628	2.3604583740234375	10.772064208984375	-0.748626708984375	-6.287524002806498	0	-40.023804	-56.106567	2.2781372	38.811066	-94.8485	-5.19611
1448008356668	-2.3502960205078125	11.091033935546875	-0.66412353515625	-6.964661510186609	0	-39.12506	-55.807495	6.477356	41.19742	-99.42542	-6.3951497
1448008356708	-2.8787384033203125	10.547119140625	-1.350860595703125	-7.2931322477498215	0	-38.824463	-56.25763	7.6782227	41.82306	-103.06973	-7.8351364
1448008356749	-0.2508087158203125	7.663299560546875	-2.34466552734375	-7.555416907183511	0	-38.523865	-56.8573	6.777954	39.11502	-106.39312	-8.607353
1448008356793	-0.4150543212890625	6.473114013671875	-3.069488525390625	-8.077851560523571	0	-38.224792	-57.157898	5.8776855	37.25241	-107.74891	-8.673644
1448008356833	-0.6376190185546875	6.589752197265625	-2.091156005859375	-7.841663061355005	0	-36.87439	-59.70764	3.327942	32.39801	-109.349655	-9.326883
1448008356873	-0.7352142333984375	5.614990234375	-1.905487060546875	-8.081987307123804	0	-37.174988	-60.906982	0.9277344	31.65567	-109.079765	-9.468646
1448008356914	-0.7494964599609375	7.4669189453125	-2.650543212890625	-7.789949491741085	0	-36.724854	-62.40692	-1.6220093	30.852112	-108.12207	-9.407444
1448008356954	-1.5469207763671875	9.424774169921875	-3.583648681640625	-7.73435370384839	0	-37.625122	-61.506653	-3.7216187	31.072021	-106.54957	-9.014123
1448008356995	-3.3679046630859375	11.252899169921875	-2.474395751953125	-7.480530621223259	0	-38.07373	-63.157654	-6.5719604	31.472778	-103.87904	-7.941749
1448008357036	-3.0441741943359375	9.960357666015625	-6.39605712890625	-9.085402147276188	0	-38.974	-63.456726	-6.8725586	31.44696	-103.76176	-7.7762575
1448008357076	-4.2843475341796875	12.678741455078125	-3.198028564453125	-7.52704623743038	0	-37.77466	-65.10773	-7.621765	31.84964	-104.21187	-8.988384
1448008357116	1.7665557861328125	14.3128662109375	-1.196136474609375	-5.948713853097665	0	-36.57379	-67.0578	-8.972168	31.33139	-103.45028	-9.516766
1448008357157	2.4187774658203125	12.02294921875	-1.246124267578125	-6.174024822940041	0	-36.57379	-65.85693	-12.121582	30.888275	-102.45475	-9.434343
1448008357197	0.3954620361328125	5.35791015625	0.536773681640625	-7.298583677480659	0	-35.97412	-67.35687	-12.42218	29.960388	-101.54716	-8.832144
1448008357237	0.2942962646484375	8.948699951171875	1.04022216796875	-7.199234451685175	0	-36.87439	-67.80701	-12.571716	30.740082	-101.80731	-8.14804
1448008357278	0.5906524658203125	10.948211669921875	-1.45916748046875	-6.631746199385956	0	-38.224792	-65.4068	-15.422058	30.512177	-99.274605	-5.4572563
1448008357318	-0.2067718505859375	8.567840576171875	-0.45465087890625	-6.994764683577701	0	-37.324524	-66.456604	-18.122864	31.070892	-96.77755	-5.7021666
1448008357359	-1.3910064697265625	8.934417724609375	0.363006591796875	-6.994764683577701	0	-37.47406	-66.607666	-19.772339	33.068756	-94.058716	-6.3673725
1448008357399	-1.8349456787109375	8.553558349609375	0.448699951171875	-7.152634415220251	0	-37.77466	-66.30707	-21.871948	34.336395	-92.0317	-6.205283
1448008357441	-1.3088836669921875	9.089141845703125	0.2142333984375	-6.979146803720981	0	-38.523865	-64.956665	-24.421692	35.092773	-90.43781	-5.669275
1448008357481	-1.0756072998046875	9.122467041015625	0.15472412109375	-6.94275924634335	0	-38.824463	-65.7074	-25.32196	35.573944	-88.61985	-4.978671
1448008357522	-1.4136199951171875	8.805877685546875	-0.02142333984375	-7.091671943755058	0	-40.174866	-64.80713	-26.672363	35.900757	-87.05903	-3.981115
1448008357563	-0.7744903564453125	9.941314697265625	0.060699462890625	-6.76891604611162	0	-41.973877	-62.70752	-28.771973	36.21225	-85.48927	-2.5908837
1448008357603	-1.6409454345703125	10.83514404296875	0.586761474609375	-6.639440539560478	0	-44.075012	-61.956787	-29.07257	36.57309	-84.24679	-1.185148
1448008357643	-2.0813140869140625	10.86370849609375	0.2332763671875	-6.803989339863193	0	-45.57495	-62.257385	-28.921509	38.43866	-83.52085	0.24887408
1448008357683	-0.4805145263671875	12.186004638671875	0.082122802734375	-6.37329067588732	0	-45.42389	-62.10785	-29.222107	38.896057	-83.529724	0.42351317
1448008357724	-2.5383453369140625	12.697784423828125	3.50390625	-6.110203736486838	0	-43.92395	-63.757324	-27.722168	40.113007	-84.116486	-0.24107565
1448008357764	3.6089630126953125	10.572113037109375	2.072113037109375	-5.775075587707044	0	-40.174866	-69.00787	-23.222351	41.260803	-87.99386	-2.7914805
1448008357805	3.8172454833984375	10.667327880859375	-0.78790283203125	-6.105698686505331	0	-38.523865	-70.05768	-16.921997	42.442413	-93.01908	-4.0777006
1448008357845	-0.8637542724609375	10.2376708984375	-0.589141845703125	-6.842687926359245	0	-36.57379	-71.55762	-8.972168	45.21335	-97.65811	-5.4249268
1448008357886	-3.5214385986328125	10.272186279296875	-0.23565673828125	-7.145245185578933	0	-35.97412	-72.00775	-6.4224243	46.441193	-99.4736	-6.2510285
1448008357926	-0.4281463623046875	6.961090087890625	-2.155426025390625	-7.7143481747659255	0	-33.573914	-72.906494	-4.621887	46.157623	-103.13871	-7.558086
1448008357966	0.2954864501953125	6.325531005859375	-3.264678955078125	-7.9745687499999995	0	-32.073975	-74.557495	-3.2714844	41.968536	-107.55574	-7.6278095
1448008358006	0.1740875244140625	6.66949462890625	-3.452728271484375	-7.965172868171011	0	-31.474304	-74.85657	-3.7216187	40.826904	-108.254715	-7.5010448
1448008358047	-0.0020599365234375	6.542144775390625	-2.4517822265625	-7.784644854032441	0	-31.324768	-75.6073	-4.171753	39.228638	-108.0842	-7.4103813
1448008358087	-0.6245269775390625	5.93634033203125	-2.752899169921875	-8.206939353309487	0	-30.574036	-75.756836	-6.8725586	39.20984	-106.938896	-7.4480877
1448008358127	-0.7268829345703125	8.208404541015625	-3.94427490234375	-7.925843050231752	0	-31.474304	-76.057434	-7.9223633	40.03366	-105.33683	-7.4590025
1448008358167	-1.0291900634765625	9.477142333984375	-4.57745361328125	-7.839241705934945	0	-31.474304	-75.6073	-9.121704	40.56195	-104.38072	-7.4666924
1448008358208	-1.1232147216796875	11.5325927734375	-5.56768798828125	-7.60621592818968	0	-31.324768	-76.80664	-9.7213745	41.406067	-102.593475	-7.105795
1448008358248	-3.7213897705078125	13.11553955078125	-4.678619384765625	-7.635072796507533	0	-30.574036	-76.80664	-8.972168	41.75534	-102.98685	-7.689227
1448008358288	1.8474884033203125	13.257171630859375	-1.3853759765625	-6.102644808908025	0	-28.173828	-76.80664	-7.621765	41.67856	-104.14543	-8.611991
1448008358329	2.0700531005859375	9.808013916015625	-0.324920654296875	-6.407608037328613	0	-28.173828	-76.50757	-9.272766	41.572052	-103.40373	-8.682774
1448008358369	0.4859161376953125	6.313629150390625	-0.486785888671875	-7.294079472837273	0	-28.32489	-75.9079	-10.171509	41.1933	-102.82031	-8.043599
1448008358409	0.3371429443359375	9.1427001953125	0.931915283203125	-6.579874349615145	0	-29.524231	-75.45776	-12.571716	42.01239	-101.95292	-7.6076694
1448008358449	0.7203826904296875	10.70660400390625	-0.7569580078125	-6.540099014767723	0	-30.725098	-74.10736	-13.471985	42.165527	-99.85577	-6.1799045
1448008358490	-1.2719879150390625	7.86920166015625	-0.14520263671875	-7.266519074439076	0	-30.725098	-74.40643	-16.322327	42.704254	-97.5725	-5.974165
1448008358530	-2.2776947021484375	8.772552490234375	0.631988525390625	-7.1369846131930235	0	-29.524231	-74.40643	-18.87207	44.725708	-94.99566	-6.8454814
1448008358571	-1.6897430419921875	8.696380615234375	0.31182861328125	-7.101333620043409	0	-30.274963	-73.50769	-21.122742	46.145294	-92.55719	-6.853422
1448008358611	-1.4160003662109375	8.946319580078125	0.055938720703125	-7.052283762787884	0	-30.725098	-73.20709	-22.322083	46.450165	-90.76737	-6.1893783
1448008358654	-1.4457550048828125	8.610687255859375	-0.009521484375	-7.131640043925598	0	-31.474304	-72.457886	-25.32196	47.021576	-87.87162	-5.0459547
1448008358695	-1.4409942626953125	8.61187744140625	-0.01666259765625	-7.1387685156101846	0	-31.924438	-71.406555	-26.072693	47.16266	-87.02106	-4.4922967
1448008358735	-1.3862457275390625	9.47357177734375	0.258270263671875	-6.917725424412378	0	-35.073853	-69.75708	-28.172302	47.509186	-84.75442	-2.3310626
1448008358776	-1.3933868408203125	10.598297119140625	-0.108306884765625	-6.797456118525725	0	-35.523987	-69.75708	-29.07257	47.65631	-84.142914	-1.6782534
1448008358816	-2.2300872802734375	10.62567138671875	0.447509765625	-6.832866005159453	0	-37.023926	-68.55774	-29.672241	48.049835	-83.323906	-0.61213833
1448008358857	0.4680633544921875	12.854888916015625	1.02117919921875	-6.019235286940725	0	-37.324524	-67.95654	-29.97284	48.42917	-83.20857	0.16191667
1448008358897	-0.7733001708984375	12.1800537109375	3.151611328125	-5.991057460836786	0	-36.424255	-68.85681	-28.921509	48.70804	-83.5927	-0.19652201
1448008358937	2.8817596435546875	11.324310302734375	2.679107666015625	-5.697442225917251	0	-32.073975	-72.906494	-23.971558	49.674377	-87.33502	-3.076564
1448008358978	3.9517364501953125	11.10174560546875	-0.8521728515625	-6.038137554372929	0	-30.874634	-73.20709	-20.97168	50.06595	-89.74828	-4.005279
1448008359018	-0.9470672607421875	10.337646484375	-0.5284423828125	-6.829665865555585	0	-28.024292	-75.756836	-10.171509	53.88092	-97.35997	-6.1719503
1448008359059	-4.6544952392578125	10.479278564453125	-0.605804443359375	-7.522091544809706	0	-27.124023	-76.057434	-7.621765	55.34851	-99.30065	-7.071727
1448008359099	-0.7613983154296875	7.613311767578125	-1.903106689453125	-7.5820086301760234	0	-24.424744	-76.657104	-2.671814	54.082214	-104.99246	-8.739386
1448008359140	0.5109100341796875	6.201751708984375	-2.8707275390625	-7.846514745705798	0	-24.124146	-76.657104	-2.0721436	50.206696	-108.31609	-8.351616
1448008359180	0.5240020751953125	6.918243408203125	-2.752899169921875	-7.641110144683988	0	-22.773743	-76.9577	-2.0721436	47.440186	-109.806755	-7.9466834
1448008359220	-0.3733978271484375	5.43408203125	-2.370849609375	-7.766770612363851	0	-22.624207	-77.256775	-3.5720825	46.23819	-109.53582	-7.8413815
1448008359261	-0.6388092041015625	5.2960205078125	-3.126617431640625	-8.56942827704869	0	-22.624207	-76.657104	-4.322815	45.889313	-108.40406	-7.806174
1448008359301	-1.3779144287109375	9.7139892578125	-4.357269287109375	-7.811905651987706	0	-23.07434	-77.40784	-7.322693	46.21765	-106.67534	-7.6561046
1448008359342	-2.0479888916015625	10.6280517578125	-4.42987060546875	-7.769397933256942	0	-22.624207	-77.70691	-8.522034	46.647522	-104.5719	-7.4373336
1448008359382	-2.1074981689453125	11.461181640625	-7.680267333984375	-8.512994133557166	0	-23.223877	-77.40784	-9.7213745	46.150513	-103.449135	-6.999247
1448008359422	-2.3062591552734375	13.613037109375	-3.6038818359375	-7.031190819687291	0	-21.875	-77.40784	-8.822632	45.281616	-104.557236	-7.7348065
1448008359462	2.1581268310546875	14.404510498046875	-2.8231201171875	-6.0999145248195035	0	-20.974731	-77.256775	-9.422302	44.637634	-104.88848	-7.7265925
1448008359502	1.5189971923828125	8.534515380859375	-1.555572509765625	-6.891477350182918	0	-20.825195	-76.35651	-10.171509	43.783173	-104.26469	-7.1925945
1448008359543	0.0205535888671875	4.82470703125	0.89739990234375	-7.410215113872368	0	-20.375061	-76.057434	-9.571838	44.42166	-104.13131	-7.229168
1448008359583	-0.5983428955078125	10.391204833984375	1.4329833984375	-6.456100733187057	0	-21.875	-75.9079	-12.571716	44.982483	-102.530945	-6.472667
1448008359623	0.4668731689453125	10.73040771484375	-0.961669921875	-6.607285860701693	0	-21.574402	-76.657104	-15.571594	44.1886	-100.106	-5.514686
1448008359663	-0.0520477294921875	8.720184326171875	-0.224945068359375	-6.900882957974002	0	-20.974731	-75.45776	-18.421936	44.674255	-97.33715	-5.902319
1448008359704	-0.9137420654296875	9.229583740234375	0.236846923828125	-6.882101992027894	0	-20.974731	-74.85657	-20.672607	46.078552	-94.57612	-6.2190843
1448008359744	-1.4517059326171875	8.401214599609375	0.39990234375	-7.095620285811384	0	-21.875	-74.70703	-21.871948	47.50775	-92.387276	-6.119241
1448008359784	-1.4707489013671875	8.903472900390625	0.213043212890625	-7.041501952567673	0	-22.47467	-73.50769	-24.12262	48.511047	-90.37532	-5.680158
1448008359824	-1.4874114990234375	9.055816650390625	-0.179718017578125	-7.088386039733248	0	-23.374939	-73.057556	-25.32196	49.305756	-88.39117	-5.042458
1448008359865	-1.6397552490234375	8.8951416015625	-0.54986572265625	-7.217097995775479	0	-24.57428	-71.70715	-26.522827	49.902863	-86.86034	-4.073977
1448008359905	-1.4993133544921875	9.46405029296875	0.01666259765625	-6.9814629172847535	0	-25.624084	-71.406555	-28.321838	50.194366	-85.35932	-2.8248982
1448008359945	-0.9518280029296875	10.099609375	0.1951904296875	-6.7499724790616344	0	-27.874756	-69.607544	-29.07257	50.428802	-84.19447	-1.5813997
1448008359986	-0.9506378173828125	10.424530029296875	0.37371826171875	-6.668509740999661	0	-28.024292	-68.107605	-29.371643	50.74942	-83.49113	-0.5724511
1448008360026	-0.6376190185546875	11.555206298828125	0.0618896484375	-6.493070623532826	0	-29.374695	-69.15741	-29.07257	51.404022	-83.12632	0.033630148
1448008360066	-2.0170440673828125	12.019378662109375	2.707672119140625	-6.241490364397304	0	-28.92456	-69.00787	-27.272034	52.605682	-83.35661	-0.10290539
1448008360106	-0.9375457763671875	13.27740478515625	3.926422119140625	-5.953498681515393	0	-28.474426	-68.55774	-26.522827	53.40338	-83.955	-0.65075856
1448008360147	3.2995147705078125	9.3807373046875	1.505584716796875	-6.040190995126499	0	-25.775146	-71.406555	-22.471619	54.724884	-88.83814	-3.3030202
1448008360187	2.1081390380859375	10.438812255859375	-1.0235595703125	-6.411987838996506	0	-23.674011	-73.65723	-11.972046	55.78427	-94.32723	-4.368026
1448008360227	-2.4419403076171875	10.705413818359375	-0.993804931640625	-7.110367706761607	0	-22.47467	-73.50769	-6.272888	57.96991	-99.07148	-5.462471
1448008360268	-2.6930694580078125	10.500701904296875	-1.324676513671875	-7.26043505392577	0	-20.974731	-73.35663	-3.4225464	58.62143	-102.98168	-6.9286313
1448008360308	-0.1460723876953125	7.360992431640625	-1.948333740234375	-7.511695578523816	0	-19.924927	-72.457886	-0.42266846	55.949738	-106.666695	-7.421448
1448008360349	-0.1996307373046875	6.2957763671875	-3.32061767578125	-8.14060841715765	0	-19.624329	-73.35663	1.2283325	52.285126	-109.32148	-7.051632
1448008360389	0.1098175048828125	6.95037841796875	-3.086151123046875	-7.813099360470459	0	-19.024658	-72.457886	0.4776001	50.030304	-110.15355	-6.8439183
1448008360429	-0.5543060302734375	5.4578857421875	-3.019500732421875	-8.433982435092648	0	-19.32373	-71.55762	-0.87280273	48.285675	-109.10448	-6.7509327
1448008360469	-0.5983428955078125	7.546661376953125	-3.76812744140625	-8.023290985824648	0	-20.223999	-72.75696	-2.5222778	48.164856	-108.42764	-6.6753693
1448008360510	-1.0089569091796875	9.053436279296875	-3.9609375	-7.785822459022966	0	-20.223999	-72.75696	-3.1219482	48.497772	-106.80466	-6.4313526
1448008360550	-1.6159515380859375	10.62091064453125	-4.54412841796875	-7.694532129765578	0	-20.974731	-73.20709	-5.2215576	48.715576	-104.92629	-6.0863714
1448008360590	-2.2158050537109375	11.01129150390625	-5.528411865234375	-7.999094928095376	0	-21.875	-73.057556	-6.121826	48.278534	-104.054695	-5.7381372
1448008360631	-2.6002349853515625	16.315948486328125	-3.890716552734375	-6.672114883072151	0	-20.825195	-72.60742	-4.621887	47.908417	-104.817314	-6.294356
1448008360671	0.2574005126953125	8.594024658203125	-1.455596923828125	-7.087072789790417	0	-19.773865	-72.00775	-3.8726807	47.052887	-105.58018	-6.804426
1448008360712	1.5725555419921875	5.263885498046875	-0.277313232421875	-7.2455205776436395	0	-20.074463	-71.406555	-4.171753	46.87137	-105.335526	-7.061391
1448008360752	-0.2246246337890625	7.6954345703125	0.703399658203125	-6.947542533853759	0	-21.273804	-71.406555	-5.671692	46.93335	-104.17525	-6.1810913
1448008360793	-0.0675201416015625	11.262420654296875	-0.37847900390625	-6.5177671509806	0	-22.024536	-71.70715	-6.7214966	46.711395	-103.381065	-5.2999887
1448008360833	-0.2210540771484375	9.6759033203125	-1.91143798828125	-7.060072873812674	0	-22.773743	-70.95795	-8.972168	46.34973	-101.697815	-4.122067
1448008360873	-1.9230194091796875	7.96917724609375	-0.4046630859375	-7.4314169015891505	0	-22.325134	-70.50781	-11.3723755	46.71472	-99.79748	-4.6960163
1448008360914	-2.0896453857421875	8.798736572265625	-0.352294921875	-7.285331219277001	0	-22.624207	-71.70715	-13.171387	46.832184	-96.29624	-5.046788
1448008360954	-1.0648956298828125	8.448822021484375	0.227325439453125	-7.047750270302007	0	-22.773743	-70.50781	-15.722656	45.98889	-95.20877	-4.7718134
1448008360995	0.1324310302734375	8.6904296875	0.55938720703125	-6.7435544690284654	0	-24.723816	-68.25714	-20.222473	44.80542	-91.35337	-3.4587035
1448008361035	-0.6352386474609375	9.490234375	-0.177337646484375	-6.860813503823692	0	-25.474548	-68.25714	-22.471619	44.216003	-89.09664	-2.545826
1448008361075	-1.4671783447265625	9.3426513671875	-0.24517822265625	-7.044301174781285	0	-26.67389	-67.80701	-23.521423	44.56378	-87.61664	-1.4939674
1448008361116	-1.7206878662109375	9.350982666015625	0.236846923828125	-7.001757451186821	0	-28.173828	-66.607666	-24.572754	45.086884	-86.06223	-0.20756479
1448008361156	-2.3907623291015625	10.522125244140625	0.805755615234375	-6.817098615107623	0	-30.725098	-65.7074	-25.772095	45.418976	-84.861855	0.92861855
1448008361196	-1.4207611083984375	10.860137939453125	-0.23089599609375	-6.772052120173264	0	-30.4245	-65.85693	-26.222229	45.470398	-84.09776	1.650436
1448008361237	-0.9315948486328125	12.024139404296875	2.912384033203125	-6.0642840607897375	0	-31.474304	-65.25726	-26.072693	45.340515	-83.9013	1.9662579
1448008361277	0.6418304443359375	13.555908203125	3.36346435546875	-5.615991094013939	0	-31.02417	-67.35687	-24.272156	46.618164	-85.90859	0.34353498
1448008361317	4.2909393310546875	10.162689208984375	1.08544921875	-5.86463630676422	0	-28.32489	-69.15741	-20.672607	46.92206	-87.420044	-0.6706187
1448008361358	4.0624237060546875	10.055572509765625	-0.11663818359375	-6.064761142936996	0	-26.974487	-70.95795	-17.67273	47.912506	-92.03159	-2.5132399
1448008361398	-2.4514617919921875	10.431671142578125	-1.47344970703125	-7.255764912513024	0	-24.874878	-72.75696	-7.621765	52.000183	-99.21548	-4.8265443
1448008361440	-3.4107513427734375	9.937744140625	-1.481781005859375	-7.560445109527798	0	-23.223877	-73.50769	-2.671814	52.714752	-101.03036	-5.6185546
1448008361480	0.4299774169921875	7.075347900390625	-2.00189208984375	-7.4606602677095335	0	-22.024536	-73.20709	-1.4724731	49.34961	-106.17252	-6.8903537
1448008361521	0.8667755126953125	6.41717529296875	-2.710052490234375	-7.633976899299993	0	-21.124268	-73.50769	-0.27160645	47.318848	-107.52394	-6.8459854
1448008361561	0.3466644287109375	6.892059326171875	-2.7802734375	-7.695095721675465	0	-20.223999	-74.85657	-1.4724731	43.01935	-108.91236	-6.750355
1448008361601	-0.3722076416015625	5.644744873046875	-2.256591796875	-8.06995224222921	0	-19.773865	-75.756836	-2.3727417	41.9386	-108.185524	-6.9770565
1448008361641	-0.9077911376953125	6.530242919921875	-2.78265380859375	-8.121429986727508	0	-19.32373	-75.157166	-4.171753	41.67935	-107.09523	-7.073893
1448008361682	-1.0863189697265625	7.64544677734375	-3.03021240234375	-7.928059235131311	0	-19.773865	-75.756836	-4.9224854	41.907806	-106.392204	-7.095491
1448008361722	-1.7278289794921875	10.748260498046875	-4.547698974609375	-7.691716423075418	0	-20.223999	-76.35651	-8.221436	42.659424	-103.59889	-6.8589497
1448008361762	-2.8013763427734375	10.262664794921875	-4.008544921875	-7.94844405114279	0	-20.074463	-77.70691	-8.522034	42.675354	-102.671684	-6.7781444
1448008361803	-2.4336090087890625	12.0657958984375	-5.109466552734375	-7.679931164258511	0	-18.72406	-77.70691	-7.9223633	43.02112	-103.192406	-7.6049557
1448008361844	-0.1258392333984375	16.623016357421875	-3.017120361328125	-6.135080319718371	0	-17.074585	-78.60718	-8.972168	42.161194	-103.028564	-8.164327
1448008361884	1.6868133544921875	6.3909912109375	-1.42584228515625	-7.22746016659169	0	-15.873718	-78.15704	-10.021973	41.753845	-102.450645	-8.535181
1448008361924	0.8524932861328125	3.968963623046875	0.015472412109375	-7.6072979922509365	0	-16.02478	-78.60718	-10.021973	41.151703	-102.388405	-8.258118
1448008361965	1.2428741455078125	11.283843994140625	0.85455322265625	-6.148557987897803	0	-17.674255	-78.907776	-11.972046	41.36902	-101.50398	-6.941276
1448008362005	1.8617706298828125	11.3992919921875	-1.153289794921875	-6.326977487837446	0	-18.875122	-78.15704	-15.12146	40.40619	-99.249855	-4.8037195
1448008362045	-0.5471649169921875	8.18341064453125	0.0999755859375	-7.025193644668841	0	-17.375183	-78.907776	-17.67273	40.94699	-96.87112	-4.9779034
