timestamp	accel_x	accel_y	accel_z	accel_mag	temperature	mag_x	mag_y	mag_z	azimuth	pitch	roll
1448011710867	-2.7168731689453125	2.690704345703125	8.66693115234375	-6.867082636706909	0	-24.035645	11.494446	-34.643555	57.585205	-15.373654	-15.216348
1448011710907	-2.2907867431640625	3.121551513671875	8.187286376953125	-6.803592982448935	0	-24.035645	11.494446	-34.643555	57.585205	-15.373654	-15.216348
1448011710948	-2.2907867431640625	3.121551513671875	8.187286376953125	-6.803592982448935	0	-24.935913	11.195374	-34.643555	57.638885	-15.27137	-14.465164
1448011710988	-0.9601593017578125	2.0587158203125	11.522186279296875	-6.254031521018692	0	-29.586792	11.645508	-30.143738	60.30011	-14.946859	-7.171196
1448011711029	-1.5445404052734375	2.67047119140625	8.889495849609375	-6.641884114530628	0	-31.686401	11.195374	-28.643799	60.943848	-15.0809555	-5.4328823
1448011711069	0.6334991455078125	3.34173583984375	10.7640380859375	-5.967423907230997	0	-33.48694	11.195374	-26.994324	61.065735	-14.233184	-3.481469
1448011711110	0.3026275634765625	2.574066162109375	10.143951416015625	-6.198186894270341	0	-34.986877	11.645508	-25.04425	62.150818	-14.098244	-1.3927355
1448011711151	0.3026275634765625	2.574066162109375	10.143951416015625	-6.198186894270341	0	-34.986877	11.645508	-25.04425	62.150818	-14.098244	-1.3927355
1448011711192	-0.3079376220703125	2.45623779296875	9.26678466796875	-6.427978263423502	0	-35.43701	10.295105	-23.693848	64.29788	-13.697828	0.18652682
1448011711232	0.7822723388671875	2.187255859375	10.08563232421875	-6.193407433520745	0	-36.18622	10.444641	-22.944641	64.99982	-13.524732	1.1984489
1448011711273	0.4145050048828125	2.03253173828125	10.6021728515625	-6.1942310273275565	0	-35.43701	10.444641	-22.944641	64.99982	-13.524732	1.1984489
1448011711314	-0.2508087158203125	2.309844970703125	9.54052734375	-6.400786793343943	0	-35.136414	10.444641	-23.693848	64.78845	-13.817226	0.35897616
1448011711355	0.9453277587890625	2.904937744140625	9.394134521484375	-6.167314352456781	0	-35.136414	10.295105	-23.693848	64.60681	-14.111015	0.31883872
1448011711395	0.9453277587890625	2.904937744140625	9.394134521484375	-6.167314352456781	0	-35.136414	10.295105	-23.693848	64.60681	-14.111015	0.31883872
1448011711436	0.1728973388671875	2.61810302734375	9.541717529296875	-6.294803038968823	0	-36.18622	9.695435	-24.743652	64.599396	-14.25075	-0.88716304
1448011711476	0.2038421630859375	2.78948974609375	8.908538818359375	-6.356691200112811	0	-34.986877	9.695435	-26.094055	64.638306	-14.198503	-1.5013231
1448011711516	-0.3257904052734375	2.3157958984375	9.75	-6.380230858596222	0	-35.88562	9.994507	-25.343323	64.780945	-14.107983	-1.653885
1448011711557	-0.3531646728515625	2.157501220703125	8.902587890625	-6.534456293119668	0	-35.136414	9.545898	-25.793457	64.9895	-14.083545	-2.039515
1448011711597	0.3169097900390625	3.112030029296875	9.45721435546875	-6.21687101652441	0	-34.68628	9.994507	-25.64392	64.95953	-14.062479	-1.995665
1448011711638	-0.1567840576171875	2.012298583984375	9.444122314453125	-6.445106754309878	0	-34.835815	9.994507	-25.193787	65.46854	-13.904866	-1.86001
1448011711678	-0.1008453369140625	2.6728515625	10.0118408203125	-6.25922814947482	0	-34.835815	9.394836	-25.944519	65.64603	-13.552901	-2.1943371
1448011711718	0.1824188232421875	2.873992919921875	9.88092041015625	-6.209749689892514	0	-34.835815	10.444641	-25.343323	65.77704	-13.549436	-2.1145558
1448011711759	-0.0127716064453125	2.538360595703125	9.539337158203125	-6.333139744367162	0	-34.536743	9.394836	-25.64392	66.14548	-13.545534	-2.1446161
1448011711799	0.0657806396484375	2.547882080078125	9.486968994140625	-6.328003772515817	0	-34.68628	9.844971	-25.193787	66.456726	-13.529315	-2.4324255
1448011711840	0.3454742431640625	2.809722900390625	8.872833251953125	-6.338454905643679	0	-34.38568	9.394836	-25.343323	66.89526	-13.556311	-2.7059913
1448011711880	-0.4245758056640625	2.02777099609375	10.0404052734375	-6.3943279616262725	0	-33.636475	8.944702	-25.793457	67.66565	-13.017044	-3.2057664
1448011711920	-0.4245758056640625	2.02777099609375	10.0404052734375	-6.3943279616262725	0	-33.636475	8.944702	-25.793457	68.10535	-13.017044	-3.2057664
1448011711961	-0.6626129150390625	2.38006591796875	9.36199951171875	-6.478018843613928	0	-31.086731	7.8948975	-26.094055	69.50415	-12.010802	-4.840443
1448011712001	-1.2517547607421875	1.5635986328125	10.736663818359375	-6.482670444424297	0	-30.636597	7.8948975	-25.944519	71.34735	-10.979895	-6.3292904
1448011712042	-1.4671783447265625	1.63262939453125	10.53790283203125	-6.602267624655693	0	-30.036926	7.444763	-26.394653	71.76996	-10.748583	-7.0372334
1448011712082	-1.4469451904296875	2.22296142578125	8.901397705078125	-6.69574578605334	0	-29.286194	6.6955566	-26.54419	72.65045	-11.263775	-8.747359
1448011712122	-1.3921966552734375	2.05633544921875	9.410797119140625	-6.632496045639661	0	-29.43573	6.845093	-26.994324	72.65045	-11.263775	-8.747359
1448011712163	-1.6195220947265625	1.919464111328125	10.311767578125	-6.549038090423059	0	-28.985596	6.3949585	-27.293396	73.8002	-11.09776	-10.304308
1448011712204	-1.6230926513671875	2.093231201171875	8.561004638671875	-6.801413951104431	0	-27.935791	4.4448853	-27.74353	74.647705	-11.558788	-11.028389
1448011712248	-1.0994110107421875	2.14678955078125	8.694305419921875	-6.685432917006694	0	-28.385925	3.5446167	-26.994324	76.022156	-12.0003805	-11.437162
1448011712289	-1.6409454345703125	2.15631103515625	9.570281982421875	-6.630809140543443	0	-29.136658	1.8951416	-26.094055	77.51337	-12.343427	-10.51615
1448011712329	-0.9185028076171875	2.328887939453125	8.601470947265625	-6.642448284436796	0	-29.885864	0.6958008	-25.193787	78.934326	-12.991753	-9.148996
1448011712369	-0.8078155517578125	2.6204833984375	9.02874755859375	-6.513969531017269	0	-31.086731	-0.20446777	-23.693848	80.48462	-13.487318	-7.325278
1448011712410	-0.3710174560546875	2.281280517578125	9.50006103515625	-6.428682875990044	0	-33.937073	-3.5049438	-20.243835	82.81995	-13.745759	-4.611721
1448011712450	-0.3710174560546875	2.281280517578125	9.50006103515625	-6.428682875990044	0	-33.937073	-3.5049438	-20.243835	82.81995	-13.745759	-4.611721
1448011712490	0.0895843505859375	2.419342041015625	8.655029296875	-6.465349382569968	0	-34.38568	-6.0546875	-18.293762	86.204285	-14.0821295	-2.3214228
1448011712532	-0.3484039306640625	2.5728759765625	9.129913330078125	-6.436973110272213	0	-35.136414	-7.5546265	-17.393494	88.15646	-13.644037	-1.8737872
1448011712572	0.2121734619140625	2.105133056640625	9.246551513671875	-6.406032689649186	0	-35.136414	-7.8552246	-16.343689	90.457275	-13.393688	-0.8393164
1448011712613	0.6275482177734375	1.890899658203125	10.28082275390625	-6.228993170025133	0	-36.036682	-10.855103	-13.644409	94.04294	-13.582144	1.7687588
1448011712653	0.6715850830078125	2.606201171875	10.760467529296875	-6.059834223469569	0	-35.586548	-12.205505	-13.343811	96.13965	-13.722964	1.3119237
1448011712693	0.3478546142578125	2.39910888671875	7.48388671875	-6.608029972671137	0	-37.38556	-14.305115	-9.893799	98.38541	-15.262333	3.0828948
1448011712734	0.3478546142578125	2.39910888671875	7.48388671875	-6.608029972671137	0	-37.38556	-14.305115	-9.893799	98.38541	-15.262333	3.0828948
1448011712774	0.6834869384765625	1.212493896484375	10.24749755859375	-6.321850598169979	0	-35.736084	-13.85498	-11.244202	100.756805	-13.294259	3.6344244
1448011712815	-0.6804656982421875	0.8685302734375	11.4114990234375	-6.400786793343943	0	-34.835815	-13.554382	-13.943481	101.544556	-9.742498	1.0002551
1448011712855	-0.6804656982421875	0.8685302734375	11.4114990234375	-6.400786793343943	0	-34.835815	-13.554382	-13.943481	102.13205	-9.742498	1.0002551
1448011712895	-0.5162200927734375	1.177978515625	8.28607177734375	-6.815307603694464	0	-33.937073	-15.95459	-13.343811	104.93921	-7.8081326	-0.084786154
1448011712936	-0.8316192626953125	0.1544189453125	11.397216796875	-6.532456374638982	0	-35.28595	-17.904663	-11.843872	107.06738	-7.320843	2.1459491
1448011712976	-0.7316436767578125	0.588836669921875	11.40911865234375	-6.450067317974124	0	-37.086487	-17.454529	-7.9437256	108.59125	-6.023398	5.8417106
1448011713018	3.5149383544921875	2.11822509765625	10.48077392578125	-5.792383092815027	0	-37.236023	-16.104126	-6.4437866	108.56442	-4.5284686	9.3559065
1448011713058	2.6449127197265625	-0.37164306640625	14.769012451171875	-5.678370100334504	0	-38.285828	-15.205383	-4.3441772	108.24805	-1.8385879	12.700245
1448011713099	2.7460784912109375	-0.882232666015625	11.412689208984375	-6.162902011118417	0	-39.03656	-14.305115	-3.2943726	108.388306	-0.96410006	14.082939
1448011713139	1.5570831298828125	1.0970458984375	7.68145751953125	-6.591699294246933	0	-39.335632	-15.205383	-2.2445679	108.1958	-1.0151031	16.369204
1448011713179	3.1804962158203125	-0.0074462890625	9.29534912109375	-6.275537971678837	0	-40.086365	-14.305115	-1.9439697	107.90268	-0.5807838	16.604586
1448011713220	2.3271331787109375	0.058013916015625	7.845703125	-6.608029972671137	0	-40.5365	-13.554382	-1.0437012	107.056	0.024303956	18.079676
1448011713260	2.0652923583984375	-0.5311279296875	5.77716064453125	-7.102653796163431	0	-41.73584	-13.404846	-1.6433716	105.86078	-0.18419565	16.895838
1448011713301	3.5958709716796875	0.701904296875	6.018768310546875	-6.5946623326251235	0	-40.686035	-13.104248	0.75683594	103.977234	-2.187037	18.274633
1448011713341	3.5958709716796875	0.701904296875	6.018768310546875	-6.5946623326251235	0	-40.686035	-13.104248	0.75683594	103.977234	-2.187037	18.274633
1448011713381	0.5501861572265625	-2.58538818359375	12.581451416015625	-6.559101056251374	0	-41.586304	-15.205383	8.406067	108.13266	-7.9596457	23.740486
1448011713425	3.7589263916015625	-0.4644775390625	7.2315673828125	-6.562217742103812	0	-41.13617	-15.655518	10.35614	107.15979	-17.259626	22.219635
1448011713465	3.7565460205078125	0.7066650390625	8.3551025390625	-6.226332747596513	0	-42.337036	-15.504456	11.405945	106.0275	-18.632555	21.810274
1448011713506	3.7565460205078125	0.7066650390625	8.3551025390625	-6.226332747596513	0	-42.337036	-15.504456	11.405945	105.75232	-18.068201	21.810274
1448011713546	5.4275665283203125	3.577392578125	11.493621826171875	-5.279064143420045	0	-43.98651	-13.554382	5.706787	102.11929	-13.326807	21.009096
1448011713586	4.1766815185546875	4.86279296875	14.995147705078125	-4.904088175191943	0	-44.136047	-12.3550415	-1.0437012	98.67413	-8.425428	14.01913
1448011713627	4.1766815185546875	4.86279296875	14.995147705078125	-4.904088175191943	0	-44.136047	-12.3550415	-1.0437012	98.14047	-6.7970047	11.628065
1448011713668	1.1988372802734375	3.8868408203125	14.482177734375	-5.383043078815313	0	-44.136047	-12.3550415	-2.2445679	98.51083	-6.124138	11.245805
1448011713709	3.5482635498046875	3.6488037109375	8.83355712890625	-5.802773781287649	0	-44.285583	-13.85498	2.406311	99.63223	-7.4877095	14.6806
1448011713750	3.3209381103515625	2.75616455078125	9.17633056640625	-5.901035607042298	0	-44.436646	-13.705444	5.256653	101.40076	-9.516705	19.376255
1448011713790	3.7077484130859375	1.85400390625	7.980194091796875	-6.12666162943823	0	-44.735718	-15.354919	10.055542	103.499084	-12.547918	23.957531
1448011713831	3.7077484130859375	1.85400390625	7.980194091796875	-6.12666162943823	0	-44.735718	-15.354919	10.055542	103.499084	-12.547918	23.957531
1448011713871	4.3302154541015625	2.187255859375	8.677642822265625	-5.908508911307717	0	-44.88678	-15.054321	7.055664	102.982666	-11.670882	21.034534
1448011713911	3.8743743896484375	3.31317138671875	7.725494384765625	-5.944859438914518	0	-44.436646	-16.55426	6.60553	103.74429	-11.8911495	20.449501
1448011713952	3.8743743896484375	3.31317138671875	7.725494384765625	-5.944859438914518	0	-44.436646	-16.55426	6.60553	104.29202	-11.795242	20.063889
1448011713993	2.4925689697265625	1.476715087890625	11.04254150390625	-5.932090281142214	0	-43.38684	-18.205261	5.256653	105.9624	-11.385823	19.283293
1448011714033	3.3852081298828125	2.09918212890625	12.0018310546875	-5.6249470596573214	0	-42.486572	-19.554138	4.055786	107.80768	-10.750361	17.726574
1448011714074	1.7451324462890625	1.64691162109375	6.8792724609375	-6.601710527908908	0	-42.036438	-20.755005	5.555725	110.43628	-13.938319	18.055462
1448011714114	3.1507415771484375	2.434814453125	9.58575439453125	-5.911563360274426	0	-40.686035	-23.155212	8.256531	112.563934	-18.673677	18.534964
1448011714155	3.1793060302734375	3.754730224609375	8.03851318359375	-5.937162128877559	0	-40.83557	-24.055481	7.356262	112.968445	-21.162254	16.342926
1448011714195	2.1307525634765625	4.70330810546875	6.035430908203125	-6.219192638527311	0	-39.63623	-23.904419	7.055664	113.03406	-21.162254	16.342926
1448011714236	2.3878326416015625	3.25128173828125	14.55120849609375	-5.313235684036229	0	-38.887024	-23.454285	2.105713	112.38556	-21.332668	10.37062
1448011714276	-1.4279022216796875	1.767120361328125	5.887847900390625	-7.3111910074620905	0	-37.38556	-25.105286	0.30670166	112.2865	-22.503317	6.281544
1448011714317	-0.5912017822265625	2.177734375	9.7166748046875	-6.444575699454131	0	-36.486816	-26.605225	-2.2445679	111.763794	-23.604725	2.6031063
1448011714358	1.8903350830078125	6.699249267578125	2.07568359375	-6.540827818059572	0	-35.136414	-27.505493	-2.394104	111.23932	-26.087542	0.5273459
1448011714398	1.0786285400390625	5.818511962890625	6.59600830078125	-6.133297833867878	0	-35.28595	-27.65503	-0.89416504	112.54901	-28.86982	0.43329766
1448011714439	0.5823211669921875	5.125823974609375	15.435516357421875	-5.208376266967489	0	-34.536743	-28.85437	-1.6433716	114.17175	-27.614298	0.03841384
1448011714479	-2.0908355712890625	4.228424072265625	6.361541748046875	-6.891273217455128	0	-32.58667	-30.955505	-3.7445068	115.043915	-27.241207	-3.7418387
1448011714520	-2.9763336181640625	3.476226806640625	7.023284912109375	-7.063758754031517	0	-31.385803	-32.304382	-5.69458	115.51477	-26.729994	-6.2469506
1448011714561	-1.2422332763671875	4.052276611328125	13.41339111328125	-5.7787675248041666	0	-30.786133	-33.20465	-4.3441772	117.19101	-25.712776	-5.797564
1448011714601	-1.2422332763671875	4.052276611328125	13.41339111328125	-5.7787675248041666	0	-31.086731	-32.754517	-4.6432495	117.854675	-25.417662	-5.226929
1448011714642	-2.4252777099609375	5.152008056640625	5.8319091796875	-6.8810847417305805	0	-30.48706	-33.955383	-4.4937134	118.65314	-25.939154	-5.7585
1448011714684	-0.5007476806640625	4.364105224609375	10.587890625	-6.005120265877336	0	-29.43573	-36.505127	-1.4938354	122.72058	-26.739815	-5.7570543
1448011714724	-2.2205657958984375	4.7628173828125	8.1884765625	-6.5308209858700685	0	-29.43573	-36.505127	-1.4938354	124.098755	-27.602343	-5.84554
1448011714766	-2.3145904541015625	3.490509033203125	8.887115478515625	-6.634371436731396	0	-26.73645	-38.4552	-2.0935059	125.4039	-27.826973	-8.161936
1448011714806	-1.3184051513671875	3.795196533203125	7.6885986328125	-6.819687527535487	0	-25.086975	-37.85553	-1.9439697	126.15744	-28.672499	-9.514024
1448011714847	-1.5433502197265625	3.8868408203125	9.18109130859375	-6.265272513560637	0	-24.786377	-38.905334	-2.0935059	126.39902	-29.14621	-10.08154
1448011714887	-0.9137420654296875	5.323394775390625	9.13348388671875	-6.126499920290252	0	-23.886108	-39.95514	-3.5934448	125.40588	-31.24633	-12.795658
1448011714928	-2.4764556884765625	6.129150390625	5.912841796875	-6.7137798469643535	0	-23.286438	-40.25421	-3.894043	123.73505	-33.02609	-14.999776
1448011714968	-3.2429351806640625	5.76495361328125	5.912841796875	-6.7137798469643535	0	-23.286438	-40.25421	-3.894043	123.26071	-34.071274	-15.92624
1448011715008	-3.3298187255859375	5.20318603515625	7.308929443359375	-6.776369521483607	0	-23.286438	-40.405273	-2.6931763	123.54483	-35.677696	-16.757732
1448011715049	-2.5978546142578125	6.054168701171875	6.55792236328125	-6.64207215999048	0	-22.38617	-40.55481	-2.0935059	124.14075	-36.561398	-16.645508
1448011715089	-3.9320526123046875	5.682830810546875	8.31939697265625	-6.6332460690779484	0	-22.836304	-40.405273	-0.7446289	125.17218	-36.80807	-15.762679
1448011715130	0.3585662841796875	6.624267578125	12.6683349609375	-5.373636113023005	0	-24.035645	-41.15448	1.6555786	126.579895	-37.158424	-13.653693
1448011715170	-1.3874359130859375	6.42431640625	6.5364990234375	-6.404632993016898	0	-23.886108	-41.004944	1.9561768	126.14957	-39.706806	-13.52509
1448011715210	-6.6992340087890625	2.6109619140625	5.202301025390625	-8.751124310718591	0	-24.485779	-40.25421	1.8066406	123.89487	-41.629948	-14.897945
1448011715252	1.4832916259765625	9.3236083984375	6.216339111328125	-5.6806771776798595	0	-26.885986	-38.005066	2.8564453	121.262146	-43.853752	-13.031258
1448011715292	-1.8254241943359375	7.577606201171875	3.65386962890625	-6.739671302468512	0	-27.186584	-37.55493	2.8564453	120.10507	-45.642265	-12.442865
1448011715333	-1.8551788330078125	6.7052001953125	9.76904296875	-5.983111497198574	0	-28.23639	-36.505127	3.0059814	119.49957	-45.740917	-11.973309
1448011715373	0.3954620361328125	10.19482421875	8.003997802734375	-5.494490996552013	0	-27.786255	-37.405396	3.4561157	119.21246	-45.769936	-11.130563
1448011715414	-3.6797332763671875	6.951568603515625	8.7454833984375	-6.339999543416354	0	-29.43573	-35.754395	5.8563232	120.72778	-46.637405	-8.356632
1448011715454	-0.0627593994140625	9.44976806640625	4.7464599609375	-6.047149424725776	0	-30.036926	-35.005188	5.256653	120.13867	-46.697357	-7.8285856
1448011715495	-0.0020599365234375	10.674468994140625	2.088775634765625	-6.234319958852216	0	-29.586792	-35.005188	5.256653	120.29938	-46.37087	-8.102243
1448011715535	1.2357330322265625	5.576904296875	7.535064697265625	-6.018763938821112	0	-30.48706	-35.754395	3.90625	121.34885	-44.052364	-7.5796075
1448011715576	0.3966522216796875	7.17889404296875	7.41961669921875	-5.934241162822434	0	-29.885864	-35.30426	4.3563843	121.70465	-43.744312	-7.293297
1448011715617	-2.2324676513671875	7.17889404296875	7.41961669921875	-5.934241162822434	0	-29.885864	-35.30426	4.3563843	121.70465	-43.744312	-7.293297
1448011715658	-1.6897430419921875	7.701385498046875	8.978759765625	-5.934855919914167	0	-30.48706	-35.754395	5.256653	122.67493	-43.708454	-7.1229153
1448011715698	-1.3172149658203125	6.394561767578125	8.64788818359375	-6.101841575304597	0	-29.885864	-34.854126	6.0058594	122.24594	-44.887356	-6.5162697
1448011715738	1.4452056884765625	7.7811279296875	8.734771728515625	-5.5685455705855205	0	-30.036926	-34.854126	6.3064575	121.62073	-46.76417	-6.3194904
1448011715779	1.5094757080078125	7.88824462890625	2.272064208984375	-7.096937678333158	0	-30.48706	-35.154724	7.6568604	121.57364	-48.9301	-6.683579
1448011715820	-0.7852020263671875	6.7813720703125	6.554351806640625	-6.263928430324659	0	-30.786133	-35.154724	9.156799	122.69174	-48.58524	-5.5357347
1448011715860	-0.7852020263671875	6.7813720703125	6.554351806640625	-6.263928430324659	0	-30.786133	-35.154724	9.156799	122.69174	-48.58524	-5.5357347
1448011715901	-1.6468963623046875	6.808746337890625	9.31201171875	-6.002147122865636	0	-29.885864	-36.354065	10.806274	125.25662	-49.08751	-5.0129437
1448011715941	-0.2567596435546875	8.06915283203125	7.6314697265625	-5.876731946866528	0	-29.586792	-35.905457	12.905884	128.29837	-50.216293	-3.97483
1448011715982	0.1431427001953125	7.289581298828125	4.473907470703125	-6.356001288221627	0	-29.286194	-35.60486	13.806152	128.74847	-51.160603	-3.8666718
1448011716023	-3.4785919189453125	7.728759765625	7.11016845703125	-6.436090201214222	0	-28.536987	-36.20453	14.855957	130.1159	-51.758305	-3.815263
1448011716063	-1.7349700927734375	7.71685791015625	7.754058837890625	-6.100396193505619	0	-28.385925	-36.654663	15.606689	130.33493	-52.18505	-4.0258985
1448011716104	-0.7661590576171875	7.384796142578125	3.766937255859375	-6.583934280316943	0	-28.536987	-35.154724	17.256165	129.16803	-55.532295	-3.9737787
1448011716145	-5.4281158447265625	2.436004638671875	2.60888671875	NaN	0	-29.885864	-34.254456	17.256165	127.88452	-57.85849	-3.743985
1448011716185	8.294723510742188	15.2459716796875	6.56982421875	-4.319294704212304	0	-31.987	-31.105042	16.656494	124.88776	-59.169373	-2.0561726
1448011716226	-0.6042938232421875	9.004638671875	1.786468505859375	-6.614921232565504	0	-33.036804	-31.105042	16.656494	123.42032	-60.081253	-0.84583867
1448011716267	0.1931304931640625	7.4383544921875	5.630767822265625	-6.164862391712276	0	-32.885742	-30.804443	16.955566	123.52942	-60.73884	-1.154889
1448011716307	0.3835601806640625	7.744232177734375	5.814056396484375	-6.072721486325135	0	-32.885742	-30.654907	16.955566	123.626434	-60.907623	-1.1829942
1448011716353	0.1193389892578125	10.1995849609375	2.981414794921875	-6.159637051858466	0	-33.937073	-29.605103	16.505432	122.08984	-61.522617	-0.46690327
1448011716396	-3.0239410400390625	7.484771728515625	3.357513427734375	-7.0104697962700415	0	-34.236145	-29.605103	16.355896	121.73468	-61.35677	-0.50466186
1448011716436	0.8394012451171875	10.15911865234375	6.568634033203125	-5.6152811227652855	0	-34.835815	-29.005432	15.756226	121.528046	-60.243416	0.59055716
1448011716476	-2.7525787353515625	8.28338623046875	5.865234375	-6.430797596108862	0	-35.28595	-27.954102	16.20636	121.033264	-60.644382	1.2861131
1448011716517	4.1659698486328125	9.78302001953125	5.23443603515625	-5.426711199662677	0	-35.28595	-27.204895	15.905762	121.033264	-60.644382	1.2861131
1448011716557	-2.2705535888671875	6.12200927734375	0.70697021484375	-7.6715529505605	0	-35.736084	-27.505493	16.056824	121.35632	-60.60189	2.1378312
1448011716597	0.0741119384765625	9.527130126953125	5.971160888671875	-5.860411591661953	0	-35.88562	-27.055359	16.056824	121.49109	-59.43425	2.9256938
1448011716638	1.8891448974609375	6.17913818359375	7.3172607421875	-5.884158945854994	0	-35.88562	-26.005554	15.455627	121.34903	-57.92165	4.564708
1448011716678	4.7860565185546875	9.25457763671875	4.0228271484375	-5.556486906950482	0	-37.38556	-25.105286	15.756226	120.76306	-57.55694	6.1561613
1448011716719	2.4973297119140625	8.7808837890625	4.964263916015625	-5.776404295447652	0	-37.236023	-25.404358	15.156555	120.61267	-57.359108	6.3283696
1448011716759	-1.2993621826171875	7.206268310546875	4.6417236328125	-6.558734583954841	0	-36.036682	-25.854492	14.706421	121.1832	-56.043827	5.310652
1448011716799	2.0117340087890625	8.06915283203125	5.573638916015625	-5.850019941813898	0	-37.236023	-26.605225	13.955688	121.2287	-55.48251	5.16561
1448011716840	0.0764923095703125	8.148895263671875	5.142791748046875	-6.150347913328586	0	-36.93695	-26.75476	13.656616	121.27298	-54.87736	5.038268
1448011716880	2.9888763427734375	7.837066650390625	7.93377685546875	-5.475350775049672	0	-36.93695	-25.854492	14.405823	121.4917	-54.85406	5.4129305
1448011716921	2.2200164794921875	7.91204833984375	3.176605224609375	-6.158495006452622	0	-35.88562	-26.75476	15.156555	122.02731	-55.717495	5.2466583
1448011716961	0.2026519775390625	8.15008544921875	5.514129638671875	-6.082775747241864	0	-35.88562	-27.804565	14.855957	123.148315	-55.64601	3.8046718
1448011717002	0.2026519775390625	8.15008544921875	5.514129638671875	-6.082775747241864	0	-34.986877	-28.555298	14.405823	124.139404	-55.264755	3.1308944
1448011717042	0.2657318115234375	7.8001708984375	6.49365234375	-5.990901498583655	0	-35.28595	-28.704834	15.005493	125.39154	-54.6999	2.922354
1448011717083	3.1555023193359375	7.884674072265625	2.183990478515625	-6.170095239915505	0	-35.88562	-28.704834	14.555359	123.529236	-55.37647	3.8207004
1448011717123	-0.4614715576171875	8.014404296875	3.983551025390625	-6.410060030465056	0	-35.586548	-28.2547	14.256287	122.82095	-55.485382	4.106779
1448011717165	4.2123870849609375	8.7523193359375	9.16680908203125	-5.102185530278003	0	-36.18622	-27.055359	13.356018	121.63312	-53.18696	5.3159766
1448011717206	-0.8375701904296875	7.814453125	7.899261474609375	-5.949639485659764	0	-36.93695	-26.454163	13.356018	120.88623	-53.338524	5.3738017
1448011717246	-2.1146392822265625	7.57403564453125	5.990203857421875	-6.422874210322804	0	-37.686157	-24.954224	13.505554	120.370056	-53.66109	5.4160066
1448011717286	6.2856903076171875	9.77825927734375	6.099700927734375	-5.098771359034473	0	-38.735962	-23.605347	14.256287	118.619934	-55.3194	7.877334
1448011717327	-0.8625640869140625	9.26171875	1.12115478515625	-6.721100129923485	0	-39.63623	-23.00415	13.955688	117.961945	-56.48527	7.309193
1448011717369	-2.0848846435546875	8.15008544921875	0.343963623046875	-7.274967240551873	0	-38.586426	-22.40448	13.656616	117.593475	-56.48527	7.309193
1448011717410	2.8174896240234375	7.481201171875	7.787384033203125	-5.55382739508664	0	-39.785767	-22.555542	12.306213	117.32361	-55.1231	7.6995497
1448011717450	0.4097442626953125	6.706390380859375	6.018768310546875	-6.1823893336477305	0	-39.486694	-22.105408	11.105347	116.339905	-51.882397	7.6850543
1448011717490	0.2645416259765625	7.408599853515625	5.54864501953125	-6.170422542968586	0	-38.887024	-22.105408	9.605408	116.0181	-50.944843	6.802523
1448011717531	1.4083099365234375	7.898956298828125	6.316314697265625	-5.8539324282685765	0	-38.887024	-23.304749	9.455872	116.319916	-50.57508	6.2895026
1448011717571	0.8453521728515625	7.994171142578125	6.083038330078125	-5.94362683862445	0	-37.986755	-23.454285	9.306335	116.77109	-50.26761	5.6704335
1448011717611	1.1262359619140625	7.77874755859375	6.9078369140625	-5.8300662789597375	0	-38.586426	-24.50409	8.555603	117.227234	-49.810516	4.9192834
1448011717654	-0.0663299560546875	6.987274169921875	6.89117431640625	-6.090134134386078	0	-37.835693	-24.804688	8.406067	117.80414	-48.769493	4.3764296
1448011717696	-1.5576324462890625	6.020843505859375	6.466278076171875	-6.500622211849845	0	-37.835693	-24.804688	8.406067	118.27661	-48.367275	4.0437307
1448011717736	1.8403472900390625	7.40264892578125	7.992095947265625	-5.655083149126582	0	-37.53662	-26.454163	9.156799	119.27582	-47.78133	3.850079
1448011717777	1.1119537353515625	7.932281494140625	5.90570068359375	-5.940085301581547	0	-36.93695	-26.605225	9.906006	121.64441	-48.06324	3.5116565
1448011717818	0.0181732177734375	6.742095947265625	6.40081787109375	-6.178778748045486	0	-36.78589	-28.2547	9.906006	122.506195	-48.113686	3.1601071
1448011717861	0.9227142333984375	7.339569091796875	7.65765380859375	-5.816620409351814	0	-34.68628	-30.35431	10.806274	125.686646	-47.748604	1.5960785
1448011717902	0.4180755615234375	6.865875244140625	7.654083251953125	-5.9416247015514845	0	-33.636475	-30.804443	10.955811	126.22925	-47.7103	1.0539114
1448011717942	-1.5302581787109375	7.25506591796875	7.342254638671875	-6.191760808842295	0	-32.435608	-32.754517	11.706543	128.09756	-48.885845	-0.9438296
1448011717983	-2.0610809326171875	7.556182861328125	6.842376708984375	-6.29412528298134	0	-31.987	-32.754517	11.706543	128.09756	-48.885845	-0.9438296
1448011718026	-0.6852264404296875	6.925384521484375	6.2841796875	-6.267625887555168	0	-31.385803	-33.654785	14.1067505	129.02368	-51.76418	-2.3867877
1448011718066	-0.0234832763671875	10.326934814453125	3.907379150390625	-6.036874454489217	0	-31.236267	-32.754517	16.355896	128.84991	-55.819782	-3.35337
1448011718107	-0.0234832763671875	10.326934814453125	3.907379150390625	-6.036874454489217	0	-31.236267	-32.754517	16.355896	128.42624	-57.74823	-3.2390606
1448011718147	1.4523468017578125	7.825164794921875	3.53009033203125	-6.227828991858946	0	-30.636597	-33.50525	17.706299	127.836365	-61.46024	-3.377103
1448011718188	-1.4505157470703125	6.46954345703125	3.307525634765625	-6.921023221481264	0	-31.385803	-33.80432	18.455505	128.22546	-62.39096	-4.313273
1448011718228	0.1193389892578125	10.27099609375	5.23443603515625	-5.853781876412214	0	-29.736328	-33.955383	18.90564	128.94037	-63.088852	-5.236493
1448011718268	-5.0413055419921875	0.453155517578125	6.697174072265625	-8.354352070804863	0	-28.385925	-35.005188	19.955444	130.34369	-65.81935	-7.7273645
1448011718309	-0.2805633544921875	4.906829833984375	3.68243408203125	-6.924118332838274	0	-28.83606	-34.854126	21.755981	130.33002	-67.51366	-8.015247
1448011718349	-1.8385162353515625	16.27191162109375	-1.64007568359375	-6.229824957849818	0	-28.83606	-34.70459	23.85559	130.14465	-69.55334	-8.064843
1448011718390	1.4499664306640625	9.105804443359375	2.445831298828125	-6.200826549982436	0	-28.086853	-33.50525	25.35553	130.37897	-73.1661	-8.272894
1448011718433	-1.7040252685546875	6.20294189453125	3.2325439453125	-7.026049592025157	0	-27.186584	-34.405518	25.056458	130.03485	-73.40005	-10.754092
1448011718474	-3.1750946044921875	12.61328125	-0.005950927734375	-6.735405490078259	0	-27.186584	-35.455322	24.606323	129.90158	-73.34478	-11.276878
1448011718515	-2.0218048095703125	9.177215576171875	5.176116943359375	-6.29497249840463	0	-26.435852	-35.455322	23.85559	129.58984	-71.649506	-12.148556
1448011718557	-1.6587982177734375	8.97369384765625	2.72552490234375	-6.637937737746958	0	-27.186584	-35.754395	23.85559	129.38553	-71.66692	-11.918425
1448011718597	-1.8456573486328125	9.231964111328125	3.170654296875	-6.557452256426261	0	-27.186584	-35.005188	23.106384	129.28497	-71.61111	-11.856926
1448011718638	-2.0634613037109375	9.22601318359375	3.00640869140625	-6.617719229057149	0	-27.636719	-35.754395	23.106384	129.04016	-71.55096	-11.839281
1448011718678	-1.8349456787109375	8.99273681640625	2.969512939453125	-6.624257454460874	0	-27.636719	-35.754395	22.805786	128.78516	-71.53561	-11.817585
1448011718719	-1.6088104248046875	9.255767822265625	2.9945068359375	-6.544474276886551	0	-27.636719	-35.455322	22.506714	128.43115	-71.502335	-11.6690445
1448011718759	-3.3667144775390625	8.663055419921875	0.24755859375	-7.452051309458049	0	-28.83606	-35.005188	22.65625	128.2395	-71.6612	-11.425192
1448011718802	-8.807052612304688	3.939208984375	-2.4898681640625	NaN	0	-28.83606	-35.005188	22.65625	128.2395	-71.6612	-11.425192
1448011718843	0.2597808837890625	9.105804443359375	10.022552490234375	-5.602663696446395	0	-31.236267	-33.654785	22.355652	126.57797	-71.50294	-8.627254
1448011718883	-1.3921966552734375	6.901580810546875	2.336334228515625	-7.00557904617101	0	-31.236267	-31.254578	24.006653	126.48096	-74.49159	-7.8516607
1448011718924	1.4940032958984375	4.4581298828125	2.429168701171875	-6.911552180035222	0	-30.636597	-31.404114	23.405457	126.33191	-73.91412	-8.243121
1448011718964	-1.9849090576171875	6.637359619140625	3.702667236328125	-6.916077936799034	0	-31.835938	-32.455444	24.905396	126.61844	-74.43147	-9.344454
1448011719005	-2.0087127685546875	14.7698974609375	0.501068115234375	-6.164862391712276	0	-31.686401	-32.00531	27.156067	126.50348	-76.618774	-9.663025
1448011719046	-2.1931915283203125	10.124603271484375	2.469635009765625	-6.581534612611755	0	-33.78601	-30.804443	27.456665	126.146484	-76.72885	-8.657804
1448011719086	0.7239532470703125	12.8370361328125	2.581512451171875	-5.7888267571383905	0	-35.28595	-28.704834	28.50647	125.70563	-77.169174	-6.472502
1448011719127	-1.3564910888671875	7.172943115234375	1.938812255859375	-7.021772486090644	0	-36.78589	-25.254822	30.456543	125.64209	-78.45478	-4.3310156
1448011719167	-0.4817047119140625	6.471923828125	2.23516845703125	-6.9386063505575555	0	-37.38556	-24.354553	31.356812	125.49652	-79.73358	-2.9669886
1448011719208	-5.8625335693359375	25.347076416015625	1.32586669921875	-5.244757220387966	0	-36.486816	-22.705078	33.155823	124.48386	-81.31134	-3.0447874
1448011719249	0.4442596435546875	9.58544921875	0.5760498046875	-6.549951620608668	0	-35.88562	-20.30487	32.556152	122.96445	-82.10147	-2.3786902
1448011719289	-0.5495452880859375	9.72113037109375	1.2235107421875	-6.582457350365013	0	-35.136414	-20.454407	31.956482	122.03601	-82.25008	-2.2995174
1448011719330	-0.0425262451171875	9.74017333984375	2.18994140625	-6.358761764093831	0	-37.086487	-19.10553	30.456543	121.08511	-82.26728	-2.3036666
1448011719371	-0.7721099853515625	9.99249267578125	1.7138671875	-6.499902269948206	0	-36.486816	-19.404602	30.006409	119.95865	-82.50094	-2.2027152
1448011719412	0.7322845458984375	9.410491943359375	1.246124267578125	-6.431855453099311	0	-36.486816	-20.004272	29.255676	119.69061	-82.63746	-2.0537705
1448011719452	-0.2996063232421875	9.153411865234375	2.5374755859375	-6.431502797262027	0	-35.586548	-24.354553	29.70581	118.55646	-83.1487	-1.9274108
1448011719492	-1.0744171142578125	9.14508056640625	-0.3189697265625	-7.02241363310824	0	-33.636475	-26.005554	29.556274	118.06094	-83.44944	-1.9274108
1448011719533	-0.0615692138671875	9.48785400390625	0.965240478515625	-6.5830111197991314	0	-34.986877	-29.005432	26.106262	117.70395	-83.54018	-1.6532428
1448011719573	-0.2579498291015625	9.62591552734375	0.94976806640625	-6.594477062650242	0	-34.68628	-29.005432	25.056458	117.70395	-83.54018	-1.6532428
1448011719614	-0.6019134521484375	9.58544921875	0.93310546875	-6.657530099957835	0	-37.086487	-28.404236	24.006653	117.34714	-83.51874	-1.1500199
1448011719654	-0.5876312255859375	9.869903564453125	1.11639404296875	-6.581903676028402	0	-38.285828	-27.505493	23.106384	116.908295	-83.59761	-0.78062254
1448011719695	-0.6161956787109375	9.517608642578125	0.960479736328125	-6.666234941572029	0	-38.887024	-26.454163	22.65625	116.35626	-83.82514	-0.4024039
1448011719736	-0.7483062744140625	9.62353515625	0.94976806640625	-6.672114883072151	0	-38.735962	-25.854492	22.05658	115.80066	-84.01579	4.4566987E-4
1448011719776	-0.9625396728515625	9.50213623046875	1.29730224609375	-6.670216923315817	0	-39.785767	-25.704956	21.755981	115.19672	-84.08211	0.5200885
1448011719819	-1.2458038330078125	9.546173095703125	1.815032958984375	-6.626127987596858	0	-40.086365	-25.854492	21.006775	114.53711	-84.12833	1.1603662
1448011719859	-1.0720367431640625	9.57830810546875	1.39013671875	-6.660744300662428	0	-40.986633	-25.55542	20.106506	113.265686	-84.31524	2.3633626
1448011719903	-0.9196929931640625	9.36407470703125	1.133056640625	-6.711856334606662	0	-41.13617	-23.754883	19.805908	112.310425	-84.47716	3.3740962
1448011719943	-0.7304534912109375	9.22601318359375	0.610565185546875	-6.7889643563329765	0	-43.086243	-22.705078	18.455505	111.20465	-84.629395	4.534592
1448011719983	-0.2519989013671875	9.96868896484375	0.79742431640625	-6.564052486102506	0	-43.23578	-23.304749	17.4057	109.835266	-84.883606	5.241358
1448011720024	-0.1651153564453125	9.96630859375	0.689117431640625	-6.567725092112183	0	-43.38684	-22.40448	17.256165	109.835266	-84.883606	5.241358
1448011720064	-0.3162689208984375	10.18292236328125	1.841217041015625	-6.384923439686556	0	-43.23578	-22.854614	17.106628	109.147766	-84.899734	5.4358087
1448011720106	1.3940277099609375	11.62066650390625	0.579620361328125	-6.119553136289787	0	-43.086243	-23.00415	16.056824	108.32486	-85.099724	5.626228
1448011720150	2.4294891357421875	10.6185302734375	-0.622467041015625	-6.281610302403131	0	-41.285706	-24.804688	16.355896	108.09863	-86.94584	5.1808558
1448011720191	0.9429473876953125	9.303375244140625	-0.796234130859375	-6.7325003755609085	0	-40.986633	-26.454163	17.106628	108.31036	-88.944725	4.4812355
1448011720231	1.7344207763671875	9.305755615234375	-0.412994384765625	-6.546664110011373	0	-40.386963	-26.605225	17.256165	107.66745	-91.168465	3.5858643
1448011720274	1.6082611083984375	8.648773193359375	-0.527252197265625	-6.657908070919319	0	-39.03656	-28.105164	17.4057	106.4718	-93.23525	2.5195038
1448011720314	1.1619415283203125	9.16412353515625	-1.360382080078125	-6.812324965304883	0	-37.986755	-29.754639	17.256165	105.83145	-94.57193	1.1339811
1448011720355	0.6346893310546875	8.947509765625	-0.520111083984375	-6.796269783446455	0	-36.636353	-30.955505	16.505432	105.10657	-95.2611	-0.4724103
1448011720395	0.4835357666015625	8.433349609375	-1.393707275390625	-7.063758754031517	0	-36.18622	-33.50525	15.905762	103.73532	-96.0081	-3.0752406
1448011720436	0.5109100341796875	8.470245361328125	-1.479400634765625	-7.0676668571974615	0	-33.78601	-35.30426	15.606689	103.11743	-96.264275	-4.2669444
1448011720476	0.1847991943359375	8.528564453125	-1.45916748046875	-7.0676668571974615	0	-33.78601	-35.30426	15.606689	103.11743	-96.264275	-4.2669444
1448011720517	-0.6090545654296875	8.546417236328125	-1.0235595703125	-7.17718883006367	0	-32.28607	-36.654663	15.606689	102.913025	-96.31955	-5.272837
1448011720558	-1.2124786376953125	7.55975341796875	-1.77099609375	-7.667376148570833	0	-32.136536	-37.405396	15.606689	103.001495	-96.25163	-6.3244505
1448011720599	-1.4564666748046875	8.670196533203125	-1.93048095703125	-7.508068098684034	0	-31.536865	-37.704468	15.156555	102.97278	-95.81767	-6.5447626
1448011720640	-1.8658905029296875	8.808258056640625	-2.1280517578125	-7.612445083888004	0	-31.686401	-38.30414	14.555359	102.83902	-95.20198	-6.5647206
1448011720680	-2.1360626220703125	9.907989501953125	-1.21160888671875	-7.2452882280432815	0	-30.48706	-39.804077	14.1067505	102.78311	-94.614876	-6.921261
1448011720720	-5.3340911865234375	9.591400146484375	-3.68243408203125	-9.048394963133529	0	-29.136658	-40.104675	13.806152	102.6369	-93.92465	-8.505562
1448011720761	-3.5595245361328125	11.2088623046875	-2.183990478515625	-7.468791776462606	0	-29.586792	-40.704346	12.756348	102.31247	-93.30147	-9.7642975
1448011720802	0.0181732177734375	16.137420654296875	1.44488525390625	-5.611307504121248	0	-27.786255	-41.15448	12.005615	102.41968	-92.79804	-10.207009
1448011720842	1.3975982666015625	8.665435791015625	-3.688385009765625	-7.281793265247503	0	-28.536987	-40.55481	10.505676	101.49188	-91.987724	-9.450131
1448011720882	-0.4317169189453125	3.233428955078125	1.0616455078125	-7.8410574428557105	0	-28.686523	-40.405273	10.656738	102.63953	-91.782036	-9.5737295
1448011720923	-0.0092010498046875	5.185333251953125	2.2518310546875	-7.0811709958181	0	-28.686523	-40.405273	10.656738	102.90906	-91.51742	-9.145416
1448011720965	2.3973541259765625	10.74945068359375	1.110443115234375	-6.021121266317288	0	-29.586792	-38.754272	9.005737	101.60327	-90.65819	-6.631401
1448011721005	1.2154998779296875	9.36407470703125	0.374908447265625	-6.496844263963492	0	-30.036926	-37.405396	7.8063965	101.033295	-89.17317	-5.393376
1448011721046	-0.4507598876953125	8.646392822265625	1.00689697265625	-6.7730328081899085	0	-29.286194	-38.154602	7.9559326	102.583405	-87.24743	-5.7142487
1448011721086	-1.3255462646484375	9.370025634765625	1.712677001953125	-6.682955274351721	0	-30.48706	-37.405396	7.8063965	104.67523	-85.25748	-5.4719934
1448011721127	-0.7554473876953125	9.103424072265625	1.61151123046875	-6.650734363595454	0	-29.586792	-36.354065	7.8063965	105.41821	-83.59059	-4.5802803
1448011721167	-0.6376190185546875	9.198638916015625	1.2806396484375	-6.649414669065626	0	-30.48706	-36.054993	6.756592	105.480225	-82.96396	-4.1716833
1448011721208	-0.2746124267578125	8.996307373046875	1.32586669921875	-6.662258002589462	0	-30.48706	-35.754395	6.4559937	105.483246	-82.42644	-3.7224982
1448011721248	-0.2436676025390625	9.410491943359375	0.980712890625	-6.665855968518118	0	-31.385803	-35.455322	6.0058594	105.73456	-81.11443	-2.0907972
1448011721288	-0.4257659912109375	10.055572509765625	0.96881103515625	-6.551048195203931	0	-31.086731	-34.405518	6.3064575	105.94803	-80.70267	-1.428185
1448011721329	-1.1839141845703125	9.467620849609375	1.22113037109375	-6.723608427495655	0	-31.236267	-33.055115	7.055664	107.47989	-79.67676	0.5934943
1448011721369	-2.0182342529296875	9.89251708984375	1.093780517578125	-6.811927504635575	0	-40.567017	-36.83319	-4.9728394	108.929016	-79.46542	1.6370605
1448011721410	-0.0627593994140625	11.045806884765625	0.022613525390625	-6.489121889937751	0	-40.116882	-37.13379	-4.672241	109.78537	-79.52078	2.1276917
1448011721450	1.4773406982421875	14.60565185546875	3.029022216796875	-5.434870963279195	0	-39.666748	-37.13379	-3.1723022	111.24597	-79.93568	1.9608213
1448011721491	4.2623748779296875	12.145538330078125	3.29443359375	-5.367867432953657	0	-38.91754	-39.083862	-1.373291	112.651855	-80.9004	0.636305
1448011721531	4.7563018798828125	8.772552490234375	0.447509765625	-6.068102422664662	0	-36.216736	-39.083862	2.2277832	114.69791	-83.36922	-1.1830387
1448011721573	-0.3174591064453125	9.4854736328125	-0.199951171875	-6.811927504635575	0	-34.56726	-39.2334	6.877136	120.87634	-88.67293	-3.6397126
1448011721614	-3.1929473876953125	9.32122802734375	-0.793853759765625	-7.49696217560354	0	-32.46765	-39.83307	10.627747	123.840485	-91.56985	-5.220373
1448011721654	-0.4936065673828125	7.87396240234375	-1.391326904296875	-7.359350742024004	0	-32.46765	-38.33313	12.277222	123.58325	-94.474495	-6.3241577
1448011721695	0.4990081787109375	7.560943603515625	-1.391326904296875	-7.359350742024004	0	-32.46765	-38.33313	12.277222	122.772675	-95.91878	-6.51045
1448011721736	1.8272552490234375	8.05963134765625	-2.53033447265625	-7.004941751671041	0	-31.716919	-38.034058	13.17749	121.571106	-98.64492	-6.97284
1448011721776	-0.7483062744140625	6.830169677734375	-2.081634521484375	-7.806542780359537	0	-29.316711	-38.034058	14.826965	122.92511	-98.60419	-8.049246
1448011721817	-1.4636077880859375	6.504058837890625	-2.11614990234375	-8.096541185964371	0	-29.316711	-38.034058	14.826965	124.096985	-98.21549	-8.645617
1448011721858	-1.3517303466796875	7.513336181640625	-2.229217529296875	-7.823574960908445	0	-29.316711	-38.783264	16.627502	128.57837	-96.385796	-9.810403
1448011721898	-4.1569976806640625	8.039398193359375	-2.34466552734375	-8.566545571617292	0	-27.5177	-38.783264	17.227173	131.71704	-94.49914	-10.037846
1448011721939	-4.0677337646484375	10.1519775390625	-2.341094970703125	-7.871878106881782	0	-27.217102	-37.43286	17.077637	133.61465	-92.67524	-9.430845
1448011721980	-5.3448028564453125	12.1229248046875	-5.75811767578125	-8.796647390982656	0	-27.366638	-38.33313	17.227173	134.64948	-91.98319	-9.468346
1448011722020	-2.9430084228515625	16.458770751953125	-1.305633544921875	-6.312300530266518	0	-26.316833	-38.48419	17.227173	134.97736	-91.79485	-10.401
1448011722061	1.7106170654296875	12.72039794921875	-0.27850341796875	-6.044617597505313	0	-25.567627	-37.43286	16.777039	134.65768	-91.17017	-11.339835
1448011722102	1.9879302978515625	5.03179931640625	-0.474884033203125	-7.248310418843346	0	-26.316833	-38.034058	16.627502	134.25238	-91.19057	-10.976642
1448011722143	1.0131683349609375	6.44573974609375	1.66387939453125	-6.786204748449975	0	-27.5177	-36.083984	15.577698	134.94818	-90.23084	-9.860988
1448011722183	1.5927886962890625	10.969635009765625	1.55914306640625	-6.048732682962191	0	-28.868103	-34.584045	15.577698	134.45132	-88.793106	-7.798726
1448011722224	1.9069976806640625	10.08770751953125	0.686737060546875	-6.245498729221227	0	-29.316711	-34.73358	14.527893	135.01459	-86.770805	-6.9156857
1448011722264	-0.2817535400390625	9.080810546875	1.133056640625	-6.655074393652981	0	-29.01764	-34.883118	14.376831	137.32318	-84.5946	-7.458346
1448011722304	-1.7813873291015625	8.513092041015625	1.527008056640625	-6.9328023786364685	0	-27.816772	-35.63385	15.2771	139.64722	-82.82466	-7.5953536
1448011722345	-1.0041961669921875	9.062957763671875	1.531768798828125	-6.709741850922485	0	-27.816772	-35.932922	15.127563	140.76764	-81.57764	-6.8645334
1448011722385	-0.6078643798828125	9.522369384765625	1.53533935546875	-6.573978098145165	0	-27.667236	-34.73358	15.2771	141.76282	-80.060234	-5.8390746
1448011722425	-1.2696075439453125	9.442626953125	1.324676513671875	-6.724766791850739	0	-28.868103	-33.233643	15.577698	142.89557	-78.84007	-4.6592007
1448011722466	-1.3029327392578125	9.062957763671875	1.1568603515625	-6.724766791850739	0	-28.868103	-33.233643	15.577698	143.48721	-78.36154	-3.9534311
1448011722506	-1.6885528564453125	9.593780517578125	0.980712890625	-6.825670522176377	0	-29.316711	-31.28357	16.177368	144.92896	-77.21	-1.4720814
1448011722549	-1.8539886474609375	9.912750244140625	0.570098876953125	-6.91237451851185	0	-29.167175	-30.3833	17.227173	145.80545	-76.76185	-0.015367925
1448011722589	-2.1467742919921875	10.629241943359375	1.51153564453125	-6.645270644191207	0	-28.567505	-30.683899	16.926575	146.26883	-76.63041	0.557289
1448011722630	0.5394744873046875	12.260986328125	1.831695556640625	-5.981399825882269	0	-29.01764	-29.032898	18.127441	147.8359	-76.587875	1.1870692
1448011722671	3.6541900634765625	13.854644775390625	3.852630615234375	-5.184753458399817	0	-28.717041	-27.684021	19.02771	148.89594	-77.439644	0.4591636
1448011722711	4.1112213134765625	10.8946533203125	2.886199951171875	-5.576697567914723	0	-26.617432	-27.383423	20.527649	151.45825	-79.9791	-1.1169561
1448011722752	1.7213287353515625	10.14007568359375	-0.33087158203125	-6.410936171392394	0	-23.76709	-24.533081	24.577332	155.75671	-84.00116	-2.8166587
1448011722792	-1.9837188720703125	9.080810546875	0.8236083984375	-6.992226166757126	0	-21.217346	-21.684265	28.027344	161.86304	-89.74209	-5.3235207
1448011722832	-2.9441986083984375	9.4283447265625	-0.543914794921875	-7.369341022533266	0	-20.018005	-19.433594	28.927612	162.94727	-92.980865	-6.982269
1448011722873	0.3133392333984375	7.320526123046875	-1.643646240234375	-7.359107586076938	0	-21.06781	-18.38379	28.927612	162.013	-96.0541	-7.9217
1448011722914	0.6727752685546875	7.287200927734375	-2.06854248046875	-7.379372421914189	0	-21.06781	-16.433716	28.927612	160.96039	-98.35904	-8.540105
1448011722954	-0.4828948974609375	7.12176513671875	-2.07806396484375	-7.670995571643928	0	-21.366882	-16.734314	28.477478	161.22064	-99.103806	-9.257795
1448011722994	-2.0289459228515625	5.805419921875	-1.85430908203125	-8.420178376902543	0	-21.66748	-15.834045	28.77655	162.38354	-98.73863	-9.673953
1448011723035	-2.3764801025390625	7.170562744140625	-2.74932861328125	-8.376651039959707	0	-20.317078	-15.834045	28.927612	163.83875	-98.00924	-9.591968
1448011723076	-3.2167510986328125	8.90704345703125	-3.888336181640625	-8.464230387427586	0	-20.317078	-15.383911	28.327942	165.00793	-96.82659	-9.166767
1448011723116	-4.0522613525390625	11.765869140625	-1.774566650390625	-7.369585199532979	0	-20.46814	-14.933777	28.027344	165.90515	-95.11164	-8.566404
1448011723157	-3.6345062255859375	12.1134033203125	-5.009490966796875	-7.943965809416758	0	-21.817017	-14.033508	27.276611	166.54657	-94.08271	-8.040937
1448011723197	-3.7963714599609375	14.84368896484375	-0.24755859375	-6.520301335676744	0	-21.06781	-14.633179	26.67694	167.06232	-93.59418	-8.788647
1448011723238	2.4294891357421875	12.593048095703125	-0.41656494140625	-5.984823935126618	0	-21.366882	-14.933777	25.627136	167.63708	-92.36569	-10.569646
1448011723278	2.0641021728515625	8.604736328125	-0.3665771484375	-6.596886406462554	0	-21.968079	-16.28418	24.127197	167.27087	-91.61101	-10.41176
1448011723319	-1.0553741455078125	6.595703125	1.407989501953125	-7.170633672171567	0	-22.567749	-16.28418	23.977661	167.5448	-91.36229	-9.877339
1448011723359	-0.8744659423828125	7.818023681640625	1.5758056640625	-6.887805145386145	0	-23.617554	-16.583252	23.376465	167.25098	-91.36229	-9.877339
1448011723400	0.7584686279296875	10.098419189453125	0.6998291015625	-6.40708284032198	0	-25.567627	-16.433716	20.376587	165.53809	-88.79711	-6.8743973
1448011723442	-0.1032257080078125	8.53570556640625	0.75457763671875	-6.77558408200861	0	-26.167297	-17.033386	20.376587	165.53809	-88.79711	-6.8743973
1448011723483	-0.5364532470703125	8.8046875	1.027130126953125	-6.757769998198848	0	-27.217102	-17.933655	19.326782	165.96997	-86.024185	-6.360154
1448011723523	-1.6945037841796875	8.608306884765625	1.19256591796875	-6.959431403208674	0	-29.01764	-17.633057	19.02771	166.58264	-84.78444	-5.9244304
1448011723564	-1.7230682373046875	8.985595703125	1.243743896484375	-6.890048721125464	0	-29.467773	-17.933655	18.727112	166.8335	-83.55078	-5.088323
1448011723605	-1.9456329345703125	9.160552978515625	0.893829345703125	-6.95901340963116	0	-31.117249	-17.48352	16.926575	166.72345	-81.69951	-3.1525707
1448011723645	-2.5728607177734375	9.28790283203125	0.960479736328125	-7.036126782192988	0	-32.46765	-15.834045	16.47644	166.94775	-80.96283	-1.4265885
1448011723686	-2.8549346923828125	9.6473388671875	0.641510009765625	-7.080079472923353	0	-34.117126	-15.682983	16.326904	166.63354	-80.25583	0.040037293
1448011723726	-2.8108978271484375	9.73541259765625	1.500823974609375	-6.903956593531133	0	-34.86786	-15.983582	14.826965	165.79907	-79.79442	1.1086566
1448011723767	-1.5302581787109375	11.137451171875	1.500823974609375	-6.903956593531133	0	-35.16693	-15.083313	14.677429	165.21222	-79.66839	1.4962854
1448011723807	0.3716583251953125	13.576141357421875	3.186126708984375	-5.6672852751208245	0	-37.716675	-16.28418	11.976624	163.0102	-79.62794	1.514629
1448011723848	3.3506927490234375	12.028900146484375	2.862396240234375	-5.535535830996894	0	-38.31787	-18.38379	11.677551	162.32361	-81.61248	-0.957644
1448011723888	3.7767791748046875	12.028900146484375	2.862396240234375	-5.535535830996894	0	-38.31787	-18.38379	11.677551	162.32361	-81.61248	-0.957644
1448011723929	3.3209381103515625	10.495941162109375	-0.601043701171875	-6.171240929524421	0	-36.517334	-21.083069	14.376831	165.09991	-87.03459	-4.2226944
1448011723970	-3.1750946044921875	9.967498779296875	-0.14520263671875	-7.228383263942703	0	-35.46753	-22.132874	16.627502	167.8092	-90.76736	-6.2019196
1448011724010	-3.9261016845703125	10.1376953125	-0.39752197265625	-7.395361385662248	0	-34.716797	-23.33374	18.276978	168.1853	-93.863594	-8.200706
1448011724051	0.9893646240234375	6.863494873046875	-2.207794189453125	-7.430665382293277	0	-35.46753	-25.733948	18.426514	164.6123	-98.38565	-9.974603
1448011724091	0.0146026611328125	7.022979736328125	-2.595794677734375	-7.699045085003343	0	-35.017395	-26.783752	18.727112	162.72089	-100.16208	-10.628421
1448011724132	-0.8101959228515625	7.02655029296875	-2.595794677734375	-7.699045085003343	0	-35.017395	-26.783752	18.727112	162.45752	-100.45684	-10.930806
1448011724174	-1.6183319091796875	6.45526123046875	-2.1566162109375	-8.16943381712437	0	-35.317993	-28.134155	18.876648	162.59692	-100.211365	-11.398721
1448011724214	-2.9382476806640625	5.5340576171875	-2.393463134765625	-9.068277415178288	0	-35.768127	-28.58429	18.426514	162.91101	-99.41726	-11.394592
1448011724255	-3.1941375732421875	7.86444091796875	-2.67315673828125	-8.393395624672314	0	-35.917664	-29.933167	18.276978	162.79407	-98.000465	-10.708033
1448011724295	-2.9061126708984375	11.767059326171875	-2.214935302734375	-7.228614089926195	0	-37.716675	-33.53424	15.87677	161.68805	-96.22702	-9.49741
1448011724336	-2.9989471435546875	12.081268310546875	-6.64361572265625	-8.244964496966102	0	-37.867737	-35.63385	15.2771	159.04675	-95.72205	-8.19693
1448011724376	0.6715850830078125	14.735382080078125	-1.2996826171875	-6.050633473804853	0	-35.768127	-40.283203	15.87677	158.53113	-95.806694	-9.479457
1448011724418	1.3618927001953125	10.72564697265625	0.02142333984375	-6.326806469818171	0	-35.017395	-41.934204	14.976501	158.23181	-94.81362	-10.462018
1448011724458	1.0941009521484375	7.86444091796875	0.027374267578125	-6.808948229414344	0	-35.017395	-42.08374	14.677429	157.17578	-93.99015	-9.837521
1448011724498	-0.2936553955078125	6.07916259765625	1.66387939453125	-7.077243556315942	0	-35.768127	-42.832947	15.127563	156.41461	-93.696014	-8.903963
1448011724539	0.9108123779296875	9.55926513671875	1.2615966796875	-6.381446836368344	0	-36.517334	-42.98401	13.777161	154.92474	-92.34003	-7.2565794
1448011724579	1.9177093505859375	10.4757080078125	0.308258056640625	-6.242659005112589	0	-36.367798	-44.78302	11.677551	154.06506	-91.24942	-6.309509
1448011724620	-0.1341705322265625	8.458343505859375	0.596282958984375	-6.819886767595993	0	-35.768127	-46.43402	11.526489	154.3385	-87.81489	-5.255692
1448011724661	-1.8908843994140625	8.661865234375	1.184234619140625	-6.986100850185988	0	-33.96759	-47.483826	11.227417	155.6034	-85.94116	-5.39033
1448011724701	-2.4407501220703125	8.8856201171875	1.238983154296875	-7.034623602298522	0	-34.117126	-48.384094	10.476685	155.79901	-84.62053	-4.978448
1448011724742	-1.5731048583984375	8.560699462890625	1.171142578125	-6.950249674389154	0	-34.117126	-48.983765	9.577942	155.21637	-83.26846	-4.1878886
1448011724783	-1.3695831298828125	8.915374755859375	0.79266357421875	-6.91896165695991	0	-34.117126	-49.73297	8.827209	154.55103	-81.88881	-3.0175722
1448011724823	-1.3719635009765625	9.47833251953125	0.7283935546875	-6.834267149654637	0	-33.818054	-49.4339	8.076477	154.05609	-80.86138	-1.4649694
1448011724864	-1.1624908447265625	9.4473876953125	0.715301513671875	-6.80656693947253	0	-34.86786	-49.583435	7.777405	153.59924	-79.975876	0.21991211
1448011724904	-2.8311309814453125	10.10675048828125	1.507965087890625	-6.8428887126566185	0	-34.716797	-49.73297	8.227539	152.96967	-79.570335	1.6751648
1448011724945	-0.7554473876953125	11.414764404296875	1.650787353515625	-6.298024167825756	0	-33.666992	-49.73297	7.926941	152.15485	-79.39267	2.4162579
1448011724986	2.7841644287109375	13.936767578125	3.893096923828125	-5.266332504503279	0	-31.266785	-51.383972	8.377075	151.36182	-79.72173	1.4704176
1448011725027	3.2292938232421875	10.726837158203125	1.498443603515625	-5.875369329464252	0	-28.266907	-51.383972	11.526489	151.96161	-81.61759	-0.46788427
1448011725067	2.6294403076171875	10.299560546875	-0.639129638671875	-6.300908739232686	0	-24.816895	-51.383972	15.87677	154.37378	-85.13028	-2.556846
1448011725108	-1.5469207763671875	9.118896484375	0.386810302734375	-6.9854679558123856	0	-21.366882	-49.583435	20.527649	157.48376	-89.02386	-4.5595403
1448011725148	-2.7525787353515625	9.956787109375	-0.2999267578125	-7.179000027361292	0	-19.267273	-49.1333	23.977661	158.66626	-93.788795	-7.6077294
1448011725188	-0.5507354736328125	8.127471923828125	-1.055694580078125	-7.2529669272745565	0	-18.667603	-47.483826	25.627136	157.66577	-95.37767	-8.324065
1448011725229	-0.5507354736328125	8.127471923828125	-1.055694580078125	-7.2529669272745565	0	-18.667603	-47.483826	25.627136	157.66577	-95.37767	-8.324065
1448011725270	0.0419769287109375	7.65972900390625	-2.369659423828125	-7.4974775457353795	0	-18.817139	-45.983887	26.67694	152.75824	-99.89093	-9.702568
1448011725311	-0.7102203369140625	7.1051025390625	-1.647216796875	-7.6276861868184325	0	-17.91687	-45.983887	26.826477	151.91693	-100.16055	-10.284255
1448011725351	-1.6219024658203125	5.380523681640625	-1.881683349609375	-8.436586180284689	0	-18.518066	-45.983887	26.226807	151.72589	-100.0356	-10.453282
1448011725391	-2.0348968505859375	6.739715576171875	-2.238739013671875	-8.23622434051146	0	-17.617798	-46.583557	25.326538	151.36133	-98.789604	-10.011718
1448011725432	-3.1120147705078125	10.4376220703125	-2.68505859375	-7.652406715715907	0	-18.217468	-47.183228	23.977661	150.94125	-97.22005	-9.105782
1448011725472	-2.3717193603515625	12.009857177734375	-3.19921875	-7.269097474408584	0	-19.41681	-47.63336	22.627258	150.18213	-95.89186	-8.236561
1448011725513	-3.0572662353515625	12.15625	-6.407958984375	-8.166165673282396	0	-18.966675	-47.183228	22.927856	149.42212	-96.00258	-8.268159
1448011725553	0.0717315673828125	14.49853515625	-1.988800048828125	-6.25956367726454	0	-17.466736	-47.63336	23.077393	149.10178	-96.726974	-9.575107
1448011725594	2.2152557373046875	11.093414306640625	0.146392822265625	-6.138485652516959	0	-17.3172	-47.183228	21.876526	149.0456	-96.19543	-9.61336
1448011725634	0.9441375732421875	5.801849365234375	0.482025146484375	-7.118103750242351	0	-17.91687	-48.384094	22.027588	148.5658	-95.39719	-8.7035475
1448011725674	0.0562591552734375	7.030120849609375	2.174468994140625	-6.7634356930616715	0	-19.267273	-48.53363	21.12732	148.79852	-94.38402	-7.609097
1448011725715	1.1631317138671875	10.391204833984375	0.85455322265625	-6.283974591230596	0	-20.46814	-48.083496	19.776917	147.63623	-92.892784	-5.82472
1448011725756	0.7156219482421875	9.965118408203125	0.3570556640625	-6.484282131326411	0	-21.217346	-48.683167	19.02771	147.30054	-91.93481	-5.140219
1448011725796	-1.4517059326171875	9.31170654296875	1.003326416015625	-6.829465971044099	0	-20.767212	-49.583435	18.276978	148.02759	-89.93242	-4.8068485
1448011725837	-2.0813140869140625	8.486907958984375	1.04022216796875	-7.077897737011408	0	-20.167542	-50.63324	17.826843	150.11938	-87.24216	-5.0792584
1448011725877	-2.1146392822265625	8.89276123046875	0.917633056640625	-7.032477615374042	0	-19.717407	-51.083374	17.077637	150.52606	-85.94892	-4.4538226
1448011725918	-1.2434234619140625	9.117706298828125	0.57366943359375	-6.9000638707719775	0	-20.167542	-51.683044	15.577698	150.31769	-83.9294	-2.9590585
1448011725959	-1.7421112060546875	8.924896240234375	0.582000732421875	-7.020063481918537	0	-21.968079	-52.13318	14.677429	150.15393	-83.05165	-1.5137606
1448011726000	-1.7909088134765625	9.341461181640625	0.79266357421875	-6.918137443139895	0	-22.717285	-50.933838	14.527893	150.10138	-82.71622	-0.6961082
1448011726040	-1.8492279052734375	10.0567626953125	0.846221923828125	-6.797653886513221	0	-24.217224	-51.083374	13.777161	149.84253	-82.00874	1.38224
1448011726081	-3.4476470947265625	9.819915771484375	1.089019775390625	-7.075064085510052	0	-24.967957	-50.03357	13.926697	149.17719	-81.75457	2.2061381
1448011726121	-1.5528717041015625	11.645660400390625	4.037109375	-6.047624332176508	0	-24.816895	-50.7843	12.876892	147.75476	-81.4794	2.3602786
1448011726163	1.5963592529296875	13.121490478515625	3.464630126953125	-5.542508085137183	0	-24.967957	-50.933838	13.17749	146.6131	-81.61722	1.6251162
1448011726204	2.8151092529296875	13.121490478515625	3.464630126953125	-5.542508085137183	0	-23.468018	-50.334167	12.57782	146.36542	-82.095985	0.82283044
1448011726244	3.8089141845703125	9.831817626953125	0.598663330078125	-6.033087691605926	0	-22.416687	-51.53351	14.976501	147.04016	-84.50267	-1.0643566
1448011726285	-1.2196197509765625	10.13531494140625	-0.146392822265625	-6.845299210116597	0	-17.018127	-49.884033	20.977783	150.30798	-90.276146	-4.045504
1448011726326	-1.2196197509765625	10.13531494140625	-0.146392822265625	-6.845299210116597	0	-17.018127	-48.983765	22.776794	151.22449	-91.99651	-4.045504
1448011726366	-1.9361114501953125	9.869903564453125	-1.04974365234375	-7.182852972957556	0	-15.516663	-47.782898	25.177002	150.71231	-94.6694	-7.041624
1448011726406	-0.2662811279296875	8.35955810546875	-1.346099853515625	-7.20906710819219	0	-16.117859	-47.183228	26.377869	147.83112	-97.03582	-8.470771
1448011726447	-0.0877532958984375	7.979888916015625	-1.957855224609375	-7.370562152283382	0	-16.567993	-46.43402	25.776672	143.23749	-99.29094	-9.33422
1448011726487	-0.3281707763671875	7.877532958984375	-1.7138671875	-7.390923077247872	0	-17.167664	-46.43402	25.177002	142.05328	-99.467	-10.294041
1448011726528	-1.0994110107421875	5.485260009765625	-1.16876220703125	-8.012976072864719	0	-16.267395	-47.183228	24.577332	140.20154	-99.13983	-11.205515
1448011726568	-1.7385406494140625	7.3431396484375	-1.681732177734375	-7.825977163292046	0	-16.567993	-48.983765	22.776794	138.4563	-97.9834	-11.374298
1448011726609	-2.0563201904296875	7.975128173828125	-1.5853271484375	-7.724898572090383	0	-16.567993	-48.983765	22.776794	138.4563	-97.9834	-11.374298
1448011726649	-2.6395111083984375	10.719696044921875	-1.110443115234375	-7.166573140044013	0	-18.367004	-49.73297	20.527649	136.98041	-95.766495	-10.084991
1448011726690	-3.9832305908203125	11.10174560546875	-5.01068115234375	-8.354761902172047	0	-17.91687	-49.282837	20.376587	136.15527	-95.50265	-9.821745
1448011726730	-5.6221160888671875	11.213623046875	-2.940948486328125	-8.178546416213615	0	-18.518066	-49.282837	19.926453	135.76068	-95.72668	-10.516598
1448011726771	-0.1901092529296875	14.285491943359375	0.4998779296875	-5.98622559163147	0	-18.518066	-50.03357	18.876648	134.85776	-95.69778	-11.232044
1448011726811	3.1507415771484375	11.60638427734375	-1.532958984375	-6.170095239915505	0	-18.966675	-51.083374	15.577698	133.6618	-94.100395	-10.858259
1448011726852	1.1226654052734375	5.444793701171875	0.274932861328125	-7.19080337797958	0	-19.866943	-50.03357	15.2771	132.06604	-93.21403	-9.561083
1448011726893	1.0643463134765625	7.38360595703125	2.243499755859375	-6.536821410191939	0	-20.617676	-50.63324	14.826965	132.74377	-93.2248	-9.395698
1448011726933	0.7798919677734375	10.8232421875	0.4141845703125	-6.339999543416354	0	-22.866821	-50.483704	13.4765625	132.47626	-92.402596	-7.594586
1448011726974	-0.3805389404296875	9.94012451171875	0.466552734375	-6.64019220793277	0	-23.617554	-50.483704	11.976624	131.659	-91.04908	-6.003267
1448011727014	-1.6528472900390625	8.893951416015625	0.86407470703125	-6.959640423011276	0	-23.16742	-52.13318	10.627747	133.0138	-88.10158	-6.3062887
1448011727054	-1.5933380126953125	9.046295166015625	1.262786865234375	-6.854356104493619	0	-23.017883	-52.28424	9.42688	133.4577	-87.14964	-6.3904405
1448011727095	-1.4433746337890625	8.7618408203125	1.115203857421875	-6.902521825441795	0	-23.316956	-52.433777	8.076477	133.87534	-85.219025	-6.0015016
1448011727135	-1.0732269287109375	8.893951416015625	0.979522705078125	-6.840078941186695	0	-23.918152	-52.88391	6.277466	133.86874	-84.50211	-5.7530093
1448011727176	-1.1279754638671875	8.7142333984375	0.615325927734375	-6.94275924634335	0	-24.816895	-53.633118	4.777527	133.83038	-83.016556	-5.0037875
1448011727216	-1.4862213134765625	8.972503662109375	0.831939697265625	-6.922467193436051	0	-25.41809	-53.334045	3.7277222	134.03043	-81.40985	-3.1608524
1448011727257	-1.7611541748046875	9.508087158203125	1.122344970703125	-6.828466699742679	0	-26.766968	-52.583313	2.9769897	134.13092	-80.94954	-2.3588743
1448011727297	-2.1110687255859375	9.862762451171875	0.872406005859375	-6.86991824477944	0	-27.816772	-53.033447	2.2277832	134.48428	-79.99777	-0.21923253
1448011727338	-3.0786895751953125	10.098419189453125	1.588897705078125	-6.872553763258674	0	-28.868103	-52.583313	1.3275146	134.53912	-79.70124	0.7411525
1448011727378	-0.2519989013671875	12.1895751953125	2.028076171875	-6.069535314204433	0	-29.167175	-54.38385	-0.022888184	134.3544	-79.47732	1.1609913
1448011727419	-0.5126495361328125	12.426422119140625	3.497955322265625	-5.880822636817844	0	-29.167175	-54.38385	-0.7720947	134.05185	-79.67013	0.8470904
1448011727459	2.6627655029296875	10.82086181640625	2.93023681640625	-5.755197263201029	0	-26.316833	-56.48346	-0.022888184	134.3194	-80.89293	-0.60910887
1448011727500	3.6280059814453125	9.374786376953125	-0.06903076171875	-6.210246069047195	0	-23.76709	-57.6828	2.2277832	135.8153	-83.86425	-2.637738
1448011727540	0.7382354736328125	10.547119140625	-0.3951416015625	-6.506567725507019	0	-20.46814	-58.283997	8.377075	138.50754	-88.02787	-4.572792
1448011727581	-3.0501251220703125	10.05914306640625	-0.352294921875	-7.226537399507341	0	-17.767334	-57.6828	11.976624	141.23517	-91.6958	-6.5491915
1448011727621	-2.0301361083984375	8.89752197265625	-1.0330810546875	-7.391169435986553	0	-16.117859	-57.9834	14.527893	141.70184	-94.56304	-8.480794
1448011727662	-0.5769195556640625	7.494293212890625	-1.94952392578125	-7.577732634846722	0	-14.767456	-57.9834	15.127563	138.73999	-98.213394	-10.36764
1448011727703	-0.2960357666015625	7.729949951171875	-2.0185546875	-7.47950750139357	0	-14.016724	-58.883667	15.2771	137.63782	-99.002365	-10.760631
1448011727745	-1.3314971923828125	5.9720458984375	-1.665069580078125	-8.081642282843848	0	-12.817383	-59.3338	14.677429	135.91412	-99.39117	-11.976897
1448011727786	-2.0432281494140625	6.54571533203125	-1.872161865234375	-8.184772229432848	0	-12.367249	-60.083008	13.6276245	135.5434	-98.815865	-12.366581
1448011727826	-2.0432281494140625	6.54571533203125	-1.872161865234375	-8.184772229432848	0	-12.06665	-61.582947	13.027954	135.42798	-98.4141	-12.334919
1448011727866	-3.2000885009765625	9.598541259765625	-2.4803466796875	-7.827179357715606	0	-11.317444	-63.83362	10.476685	135.0878	-96.54295	-11.568028
1448011727907	-2.7525787353515625	11.9658203125	-2.224456787109375	-7.162969014018964	0	-12.667847	-63.83362	9.277344	134.44553	-95.273766	-10.790731
1448011727948	-4.2200775146484375	11.326690673828125	-5.1844482421875	-8.420178376902543	0	-11.917114	-64.28375	8.677673	133.66815	-95.17556	-10.484436
1448011727988	-3.0596466064453125	13.809417724609375	-1.7662353515625	-6.809345295007185	0	-10.417175	-64.43329	8.377075	133.06396	-95.30475	-11.003144
1448011728028	1.9212799072265625	13.29644775390625	0.47607421875	-5.8450596581780445	0	-8.7677	-65.48309	7.1777344	132.70322	-94.02394	-11.135472
1448011728069	1.4130706787109375	8.017974853515625	-1.00689697265625	-6.361351718994197	0	-9.516907	-66.08429	5.9768677	132.43188	-93.30563	-10.620371
1448011728111	0.2942962646484375	4.92706298828125	1.736480712890625	-7.168828219534466	0	-9.967041	-65.33356	6.1279297	133.43091	-92.70129	-9.985543
1448011728151	0.3799896240234375	8.271484375	1.772186279296875	-6.578030614293644	0	-9.967041	-65.33356	6.1279297	133.43091	-92.70129	-9.985543
1448011728192	0.2931060791015625	10.541168212890625	0.333251953125	-6.4648151108850245	0	-11.917114	-65.33356	4.3273926	133.33957	-90.83057	-7.9419827
1448011728233	-1.3838653564453125	8.803497314453125	0.598663330078125	-6.974940541645952	0	-10.417175	-66.233826	2.3773193	134.1867	-88.059265	-7.6103053
1448011728273	-2.0801239013671875	8.955841064453125	1.17352294921875	-6.969481723948631	0	-10.717773	-66.68396	1.0269165	134.5893	-86.96879	-7.647009
1448011728314	-1.2255706787109375	8.95465087890625	1.2425537109375	-6.811331412521939	0	-10.717773	-66.233826	-1.222229	134.95355	-84.70447	-6.8980346
1448011728355	-0.8673248291015625	9.039154052734375	1.07354736328125	-6.76597891428181	0	-11.317444	-67.28363	-2.2735596	135.0888	-83.198326	-6.222916
1448011728395	-1.1958160400390625	8.85467529296875	0.6331787109375	-6.927010104916468	0	-11.767578	-66.68396	-4.222107	135.43738	-81.790375	-5.393031
1448011728435	-1.7956695556640625	8.99273681640625	0.693878173828125	-6.997517332193601	0	-12.817383	-67.28363	-4.9728394	135.72668	-80.74629	-4.132763
1448011728475	-2.3003082275390625	10.00677490234375	1.1378173828125	-6.83266589554893	0	-14.317322	-66.98303	-6.17218	135.92303	-79.84311	-2.500368
1448011728516	-2.5776214599609375	10.510223388671875	0.910491943359375	-6.832866005159453	0	-15.068054	-66.5329	-6.4727783	135.9678	-79.13883	-1.135544
1448011728556	-3.1155853271484375	10.015106201171875	1.3853759765625	-6.928250325171394	0	-15.367126	-66.68396	-6.9229126	135.69495	-78.75952	-0.2687689
1448011728597	-0.1722564697265625	12.590667724609375	2.02569580078125	-6.006059636359053	0	-15.068054	-66.833496	-7.2235107	135.12027	-78.64103	0.109327495
1448011728637	-0.7494964599609375	12.854888916015625	3.5657958984375	-5.847914819982247	0	-14.767456	-66.233826	-7.2235107	135.13147	-78.970566	-0.44097334
1448011728678	1.8236846923828125	12.654937744140625	4.459625244140625	-5.4547902982019005	0	-11.46698	-67.134094	-4.823303	135.46213	-79.50409	-1.2712708
1448011728718	3.5077972412109375	10.11865234375	-0.322540283203125	-6.159147560041692	0	-6.668091	-67.58423	2.9769897	138.64249	-84.10563	-4.5348086
1448011728758	1.6880035400390625	10.489990234375	-0.324920654296875	-6.363770768086632	0	-5.467224	-66.38336	5.9768677	140.38818	-86.43326	-5.4219937
1448011728799	-3.8951568603515625	10.469757080078125	-0.322540283203125	-7.306188046636427	0	-1.7181396	-65.93323	13.027954	145.26587	-92.443695	-8.0684395
1448011728839	-1.1672515869140625	8.294097900390625	-1.258026123046875	-7.384035204080252	0	0.53253174	-63.684082	16.627502	145.11969	-95.8796	-9.714099
1448011728880	-0.1591644287109375	7.244354248046875	-2.126861572265625	-7.5798696061107185	0	0.2319336	-62.93335	19.62738	143.27664	-99.03127	-10.601984
1448011728920	-0.3924407958984375	7.299102783203125	-2.19708251953125	-7.636443446252451	0	0.8331299	-61.43341	20.077515	141.68466	-100.94533	-11.180704
1448011728961	-0.8220977783203125	6.1339111328125	-1.73529052734375	-7.915430301863833	0	1.5823364	-62.184143	20.376587	141.09451	-101.06866	-12.057632
1448011729001	-2.0051422119140625	6.123199462890625	-2.441070556640625	-8.51161478991614	0	1.8829346	-61.73401	20.376587	141.44037	-100.249306	-12.064683
1448011729042	-2.4157562255859375	7.60736083984375	-2.464874267578125	-8.15531857435515	0	2.3330688	-63.383484	18.727112	142.02692	-98.79572	-11.500724
1448011729082	-3.7725677490234375	10.148406982421875	-3.27301025390625	-8.045115120844862	0	2.9327393	-63.53302	17.077637	142.27698	-97.02182	-10.673713
1448011729124	-2.9370574951171875	11.93011474609375	-1.553192138671875	-7.078988386829113	0	2.3330688	-64.28375	16.777039	142.07458	-96.29758	-10.196106
1448011729164	-3.5952301025390625	12.8656005859375	-5.618865966796875	-7.895708973122338	0	3.6819458	-64.88342	17.527771	141.1394	-96.33958	-9.953513
1448011729205	-1.8182830810546875	14.22955322265625	-2.90643310546875	-6.723608427495655	0	3.982544	-64.28375	18.127441	141.00934	-96.54417	-10.342669
1448011729245	0.4906768798828125	11.809906005859375	0.1285400390625	-6.281103875366661	0	5.783081	-64.88342	19.02771	141.02185	-96.37928	-10.885515
1448011729286	1.3880767822265625	6.023223876953125	0.086883544921875	-7.0683187499999995	0	5.632019	-63.082886	19.177246	141.32007	-95.28181	-10.056822
1448011729330	0.8263092041015625	9.36883544921875	1.82098388671875	-6.3401712123225344	0	6.3827515	-63.53302	19.477844	141.88907	-94.42518	-9.117425
1448011729370	0.9881744384765625	10.68280029296875	0.615325927734375	-6.3014180276653695	0	5.332947	-65.18402	18.127441	141.87524	-92.11226	-6.5257955
1448011729410	-0.0996551513671875	9.769927978515625	0.739105224609375	-6.580243223114063	0	4.8828125	-64.73389	17.376709	142.22607	-91.27605	-6.1879077
1448011729451	-0.0996551513671875	9.769927978515625	0.739105224609375	-6.580243223114063	0	4.8828125	-64.73389	17.376709	143.04034	-91.27605	-6.1879077
1448011729492	-2.1205902099609375	8.905853271484375	1.050933837890625	-7.007279207483704	0	9.233093	-65.18402	14.077759	146.3115	-87.17227	-6.965368
1448011729532	-1.8028106689453125	8.986785888671875	0.97357177734375	-6.9504580222491885	0	9.233093	-65.634155	13.6276245	147.71716	-85.70422	-6.4198976
1448011729573	-1.1529693603515625	9.0379638671875	0.929534912109375	-6.837672682104643	0	9.532166	-65.78369	12.127686	149.17926	-83.33824	-5.0842524
1448011729615	-2.0277557373046875	8.774932861328125	0.629608154296875	-7.0905762007080435	0	10.882568	-65.48309	11.376953	149.64075	-82.661644	-4.5619555
1448011729655	-1.7563934326171875	8.867767333984375	0.622467041015625	-7.025621585415879	0	10.733032	-66.68396	10.777283	150.51181	-81.61693	-3.2499144
1448011729696	-2.1658172607421875	9.60211181640625	0.88787841796875	-6.964033389254802	0	9.532166	-65.33356	10.627747	151.08377	-80.701904	-1.8201152
1448011729736	-1.8944549560546875	10.31146240234375	0.803375244140625	-6.770091694325588	0	9.382629	-65.78369	10.777283	151.20789	-80.03226	-0.578637
1448011729777	-0.8756561279296875	11.436187744140625	0.637939453125	-6.460188329368913	0	10.133362	-64.43329	12.127686	151.6488	-79.63028	0.7450819
1448011729817	-0.3329315185546875	12.297882080078125	2.33990478515625	-6.024423993164822	0	11.782837	-64.13422	12.277222	152.54358	-79.69014	0.9329529
1448011729858	1.4606781005859375	12.564483642578125	4.542938232421875	-5.497528177021652	0	15.83252	-59.033203	16.47644	153.95544	-80.48892	-0.058156505
1448011729898	3.3102264404296875	10.648284912109375	1.247314453125	-5.907135189841551	0	19.282532	-53.78418	19.926453	156.46033	-82.85189	-2.2154553
1448011729939	1.9950714111328125	10.54949951171875	-0.724822998046875	-6.368613972569887	0	22.583008	-48.384094	22.477722	160.3175	-87.00049	-4.3806357
1448011729980	-2.7228240966796875	9.529510498046875	0.265411376953125	-7.147258393827466	0	23.782349	-45.384216	24.427795	164.74951	-91.18169	-6.298991
1448011730020	-3.8808746337890625	10.1043701171875	-0.17852783203125	-7.34794840789363	0	26.332092	-42.08374	26.226807	167.21277	-94.413216	-8.333097
1448011730061	-1.1446380615234375	7.808502197265625	-1.741241455078125	-7.587901579604821	0	25.43335	-36.53412	28.927612	166.48352	-97.61925	-9.855217
1448011730101	-0.3948211669921875	6.842071533203125	-2.0518798828125	-7.710086111804065	0	24.232483	-32.333374	31.626892	164.43964	-100.42641	-10.500948
1448011730141	-0.3876800537109375	7.18841552734375	-2.272064208984375	-7.678532504677438	0	23.182678	-29.483032	32.676697	162.82605	-101.876816	-10.889386
1448011730182	-0.8304290771484375	6.814697265625	-1.6805419921875	-7.732057593518738	0	21.533203	-28.283691	32.676697	161.60974	-101.92683	-11.147469
1448011730222	-1.2291412353515625	5.9815673828125	-2.007843017578125	-8.149921657688852	0	21.232605	-26.634216	32.226563	161.36829	-101.33211	-11.072442
1448011730263	-1.8301849365234375	7.70733642578125	-2.33514404296875	-7.924577830553247	0	21.083069	-25.43335	31.626892	161.62402	-100.223724	-10.868115
1448011730303	-2.4752655029296875	10.26861572265625	-2.80169677734375	-7.572399149050646	0	21.382141	-24.082947	30.27649	162.20764	-98.66924	-10.453402
1448011730344	-2.5788116455078125	10.476898193359375	-2.948089599609375	-7.581741139702972	0	20.1828	-20.933533	30.126953	162.5669	-97.23265	-9.372067
1448011730384	-4.5378570556640625	10.336456298828125	-5.265380859375	-9.07638196147379	0	20.033264	-18.98346	29.377747	162.9024	-97.45762	-9.930522
1448011730424	-2.0575103759765625	14.1319580078125	-0.904541015625	-6.464458977210725	0	20.033264	-15.533447	27.726746	163.44281	-97.1253	-10.712609
1448011730465	2.6044464111328125	15.612548828125	-1.06878662109375	-5.665560442332859	0	18.533325	-15.834045	26.07727	164.7649	-95.43733	-10.602346
1448011730506	-0.5043182373046875	6.2767333984375	0.4189453125	-7.318355543835612	0	17.782593	-13.883972	25.177002	165.86969	-94.5234	-9.906597
1448011730547	-0.8161468505859375	6.2767333984375	0.4189453125	-7.318355543835612	0	17.332458	-13.73291	23.977661	166.98627	-94.747375	-9.979822
1448011730587	0.5466156005859375	10.491180419921875	0.32135009765625	-6.436266764522525	0	14.482117	-12.983704	22.477722	168.28796	-93.269005	-7.3823886
1448011730628	-0.3115081787109375	9.823486328125	0.120208740234375	-6.703023532495383	0	13.73291	-12.683105	21.427917	168.59119	-91.37567	-6.9413204
1448011730668	-0.3115081787109375	9.823486328125	0.120208740234375	-6.703023532495383	0	13.73291	-12.683105	21.427917	168.59119	-91.37567	-6.9413204
1448011730709	-1.6445159912109375	8.729705810546875	0.71173095703125	-7.014303315124414	0	13.13324	-13.13324	19.02771	170.6015	-88.15528	-7.544991
1448011730750	-1.5338287353515625	9.0189208984375	0.8759765625	-6.915048733709543	0	12.532043	-12.533569	17.227173	171.42859	-86.79198	-7.479189
1448011730790	-0.9399261474609375	8.722564697265625	0.87835693359375	-6.863643071433351	0	11.332703	-12.384033	16.47644	171.9278	-85.3974	-6.5934367
1448011730830	-1.0125274658203125	8.867767333984375	0.5665283203125	-6.904571711289401	0	9.082031	-11.3342285	15.127563	172.82019	-83.113144	-5.3182077
1448011730871	-1.2315216064453125	9.16412353515625	0.961669921875	-6.824273416510871	0	9.082031	-11.03363	13.4765625	173.62573	-81.89772	-4.081734
1448011730911	-1.5385894775390625	9.5045166015625	1.265167236328125	-6.768328392596942	0	8.631897	-11.1831665	13.4765625	173.62573	-81.89772	-4.081734
1448011730951	-2.0467987060546875	10.2662353515625	0.870025634765625	-6.856977718004335	0	6.8328857	-9.384155	11.376953	174.90222	-80.17508	-1.4953829
1448011730992	-1.5921478271484375	10.14959716796875	1.167572021484375	-6.718593869767814	0	5.332947	-7.583618	10.02655	175.12683	-79.635666	-0.6124145
1448011731032	-1.5921478271484375	10.14959716796875	1.167572021484375	-6.688103348998962	0	4.8828125	-7.583618	10.02655	175.12683	-79.635666	-0.6124145
1448011731072	-0.3852996826171875	12.119354248046875	1.557952880859375	-6.160779455007547	0	3.0822754	-6.5338135	8.076477	175.90912	-79.05808	0.3177875
1448011731113	-1.0577545166015625	12.497833251953125	3.638397216796875	-5.923498668313117	0	2.0324707	-5.783081	7.0266724	176.94684	-79.23491	0.11000837
1448011731153	0.4775848388671875	11.27789306640625	4.13470458984375	-5.820350823754593	0	-0.36773682	-4.133606	6.277466	178.2331	-80.72381	-1.254809
1448011731194	2.4747161865234375	8.655914306640625	0.051177978515625	-6.46267887777243	0	-2.31781	-5.1834106	5.227661	180.04176	-84.131096	-3.0010734
1448011731234	-0.7173614501953125	11.0946044921875	0.0	-6.585227149491666	0	-3.2180786	-5.332947	5.3771973	182.26807	-88.54553	-4.669277
1448011731275	-2.4919281005859375	10.714935302734375	-0.637939453125	-7.052499829522636	0	-5.467224	-4.8828125	4.777527	183.30476	-94.02497	-7.3965344
1448011731315	-1.0529937744140625	9.73779296875	-1.5186767578125	-7.129638581427921	0	-7.116699	-5.332947	4.777527	181.7013	-96.974915	-8.968007
1448011731356	-0.4876556396484375	7.534759521484375	-1.80908203125	-7.517927491626217	0	-9.066772	-6.5338135	4.626465	179.46515	-99.23887	-9.836307
1448011731396	-0.8435211181640625	7.690673828125	-2.03521728515625	-7.612987585555578	0	-9.817505	-7.28302	4.1778564	178.46161	-99.94372	-10.103243
1448011731437	-1.0946502685546875	6.230316162109375	-1.475830078125	-7.893530263835192	0	-12.217712	-9.384155	3.5766602	175.76746	-100.59712	-10.891903
1448011731477	-0.9661102294921875	6.5242919921875	-2.12567138671875	-7.953896468407165	0	-13.568115	-11.03363	2.3773193	174.21759	-100.27812	-10.960519
1448011731518	-1.7790069580078125	8.25958251953125	-2.407745361328125	-7.788474582639791	0	-15.068054	-12.533569	1.0269165	173.48132	-99.46374	-10.634894
1448011731558	-2.7216339111328125	9.918701171875	-3.1849365234375	-7.803569611487462	0	-17.018127	-12.232971	-0.6225586	172.95251	-97.49984	-9.680719
1448011731599	-3.1822357177734375	10.8565673828125	-1.288970947265625	-7.279672870505871	0	-18.667603	-13.73291	-1.6723633	172.07446	-96.71566	-8.981799
1448011731639	-3.8058929443359375	11.73016357421875	-5.551025390625	-8.266065924019266	0	-20.167542	-15.383911	-1.9729614	171.19696	-97.15735	-9.3353405
1448011731680	-2.5347747802734375	14.704437255859375	-3.029022216796875	-7.144574454502209	0	-20.767212	-16.583252	-2.722168	170.5722	-97.25104	-9.669229
1448011731720	-0.0948944091796875	12.3228759765625	0.37371826171875	-6.256712701915514	0	-21.968079	-21.383667	-3.022766	168.71039	-96.65208	-10.12367
1448011731760	0.9012908935546875	9.032012939453125	-1.150909423828125	-6.843089512557837	0	-22.866821	-22.283936	-3.6224365	168.31445	-96.24991	-9.796225
1448011731802	0.2395477294921875	5.26983642578125	1.631744384765625	-7.134310992418847	0	-24.667358	-24.983215	-3.6224365	167.61877	-94.86783	-8.473255
1448011731842	0.4573516845703125	10.634002685546875	0.327301025390625	-6.42744990041759	0	-27.067566	-27.983093	-4.823303	166.28918	-93.246216	-6.3926344
1448011731883	-0.1294097900390625	9.55926513671875	0.20947265625	-6.701873280475447	0	-27.5177	-28.58429	-5.1223755	164.78418	-91.681755	-5.2656527
1448011731923	-1.1815338134765625	8.684478759765625	0.56890869140625	-6.965499220778096	0	-28.868103	-31.28357	-6.022644	164.33319	-89.73598	-5.4968195
1448011731964	-1.7552032470703125	9.381927490234375	0.755767822265625	-6.911346631911174	0	-29.167175	-32.633972	-6.7733765	163.78326	-87.59994	-5.5464716
1448011732005	-1.2458038330078125	8.872528076171875	1.228271484375	-6.830865514610037	0	-30.21698	-33.084106	-7.0724487	162.4508	-86.17299	-5.0116982
1448011732045	-0.9411163330078125	8.776123046875	1.039031982421875	-6.827667524046733	0	-31.266785	-34.73358	-8.422852	161.68701	-84.77895	-4.3179364
1448011732086	-1.0541839599609375	8.834442138671875	0.989044189453125	-6.845299210116597	0	-31.716919	-35.333252	-8.872986	160.8952	-83.96966	-3.910107
1448011732126	-1.6552276611328125	8.9951171875	0.999755859375	-6.9187555814514194	0	-33.36792	-35.783386	-10.223389	159.2273	-82.45161	-2.966639
1448011732167	-1.6742706298828125	9.2236328125	0.615325927734375	-6.94920816296547	0	-34.716797	-36.383057	-11.4227295	156.07874	-80.64443	-0.93126124
1448011732207	-1.8516082763671875	10.1519775390625	1.067596435546875	-6.7458867337429025	0	-37.417603	-36.984253	-12.922668	153.91791	-79.659294	0.58298975
1448011732248	-2.3467254638671875	9.98297119140625	1.160430908203125	-6.840680810989249	0	-39.666748	-38.034058	-13.673401	151.54575	-79.09488	1.7193611
1448011732292	0.1288604736328125	12.146728515625	1.455596923828125	-6.10103851581357	0	-40.116882	-40.283203	-14.872742	147.6596	-78.864456	2.3298905
1448011732333	0.8870086669921875	14.4271240234375	4.2703857421875	-5.38116008597821	0	-39.967346	-44.78302	-14.422607	146.02997	-79.61696	1.5615543
1448011732373	1.6761016845703125	11.583770751953125	3.837158203125	-5.671744423362717	0	-39.067078	-47.183228	-12.62207	145.87897	-81.8422	-0.55717635
1448011732413	2.9293670654296875	10.260284423828125	0.067840576171875	-6.165516086461383	0	-37.268066	-51.983643	-8.572388	146.85431	-85.90113	-2.720163
1448011732454	0.4371185302734375	9.6282958984375	-0.24517822265625	-6.672874388837675	0	-34.56726	-56.18286	0.4272461	148.22284	-90.24722	-4.7423196
1448011732494	-3.0251312255859375	9.117706298828125	-0.10711669921875	-7.3600803548666445	0	-33.666992	-57.23419	2.5268555	147.98889	-93.577385	-6.959821
1448011732534	-1.6671295166015625	9.09033203125	-0.80694580078125	-7.234391471542949	0	-32.318115	-60.684204	4.626465	145.03424	-96.74178	-8.648329
1448011732575	-0.1948699951171875	7.14794921875	-1.85906982421875	-7.549608772853987	0	-30.81665	-62.33368	6.427002	140.81442	-99.53784	-9.460296
1448011732615	-0.6542816162109375	7.987030029296875	-2.0423583984375	-7.506515215769549	0	-29.167175	-64.13422	6.877136	137.01947	-101.04814	-9.920775
1448011732656	-1.2398529052734375	6.5052490234375	-1.731719970703125	-7.92679252383098	0	-28.868103	-66.68396	6.427002	133.99463	-101.3662	-10.329747
1448011732696	-1.5064544677734375	6.2100830078125	-2.076873779296875	-8.185873384946682	0	-29.316711	-67.28363	5.9768677	130.28568	-101.04193	-10.306862
1448011732736	-2.1110687255859375	8.1429443359375	-2.4422607421875	-7.911972102980624	0	-29.766846	-70.13397	4.0267944	128.00906	-99.36512	-9.342021
1448011732777	-2.3931427001953125	10.14483642578125	-3.019500732421875	-7.631239571665407	0	-30.517578	-71.03424	2.0767212	126.815735	-98.54567	-8.875898
1448011732817	-1.5147857666015625	12.638275146484375	-4.78216552734375	-7.28840146681421	0	-31.567383	-71.78345	1.0269165	124.17261	-97.27393	-7.7937636
1448011732858	-3.2369842529296875	11.221954345703125	-4.216827392578125	-7.865429554058863	0	-30.967712	-73.73352	1.4770508	121.45648	-97.646614	-7.706435
1448011732898	-1.6635589599609375	13.517822265625	-1.062835693359375	-6.521569161133385	0	-28.868103	-77.18353	3.427124	120.31314	-98.16964	-8.952174
1448011732939	1.8939056396484375	14.299774169921875	-0.072601318359375	-5.7914937135847895	0	-26.167297	-79.73328	3.5766602	120.4834	-97.341156	-10.257548
1448011732979	0.5085296630859375	9.786590576171875	-0.389190673828125	-6.659231326738208	0	-26.167297	-80.33295	2.3773193	119.543945	-95.46129	-9.297498
1448011733020	-1.2791290283203125	6.006561279296875	1.89239501953125	-7.233697500777028	0	-26.467896	-81.53381	3.7277222	118.67566	-95.35389	-8.73894
1448011733060	1.4083099365234375	9.579498291015625	0.622467041015625	-6.399214599351184	0	-27.967834	-83.48389	3.1265259	116.965576	-94.59656	-7.3650575
1448011733101	0.8227386474609375	10.400726318359375	0.284454345703125	-6.414267570605228	0	-28.868103	-83.78296	0.27770996	114.76468	-92.469124	-5.604866
1448011733141	0.0955352783203125	8.71661376953125	0.631988525390625	-6.733468441924071	0	-28.868103	-85.2829	-2.1224976	114.23859	-90.01869	-5.619673
1448011733182	-1.4862213134765625	8.248870849609375	0.712921142578125	-7.072451013805038	0	-27.217102	-86.18317	-3.4729004	114.83746	-87.87158	-6.017963
1448011733222	-2.0491790771484375	8.6761474609375	1.122344970703125	-7.02284114649056	0	-27.217102	-86.78284	-4.222107	115.23068	-86.25508	-5.5947127
1448011733263	-1.0279998779296875	8.93084716796875	1.4091796875	-6.755038600070602	0	-28.717041	-87.38403	-6.022644	115.06003	-84.603195	-4.622898
1448011733306	-1.4755096435546875	9.172454833984375	0.6903076171875	-6.9105245853021735	0	-29.917908	-88.43384	-7.823181	114.87207	-82.90109	-3.3581238
1448011733346	-2.1991424560546875	9.43548583984375	0.574859619140625	-7.011747051644811	0	-31.417847	-87.683105	-8.122253	114.844025	-81.71243	-1.8050637
1448011733386	-2.0527496337890625	9.93536376953125	0.6046142578125	-6.893315188390485	0	-33.517456	-87.83417	-9.172058	114.654724	-80.59755	-0.27533454
1448011733428	-2.0825042724609375	10.07342529296875	1.284210205078125	-6.761089989248773	0	-34.56726	-88.88397	-8.273315	114.02838	-79.79898	1.5512419
1448011733469	-0.6019134521484375	11.631378173828125	0.68792724609375	-6.3835323746420904	0	-34.56726	-89.78424	-7.373047	113.47833	-79.71161	1.985409
1448011733509	-1.3779144287109375	12.0943603515625	5.138031005859375	-5.824831934339854	0	-32.167053	-90.23285	-4.672241	113.64554	-80.36871	1.2352927
1448011733549	3.5030364990234375	11.50164794921875	1.62579345703125	-5.728551703906213	0	-26.316833	-92.63306	3.7277222	114.49704	-82.576836	-0.903318
1448011733591	2.3259429931640625	12.909637451171875	-0.453460693359375	-5.961847764682805	0	-23.316956	-92.03339	8.076477	116.243744	-86.73665	-3.5855749
1448011733631	-2.3110198974609375	9.3426513671875	0.417755126953125	-7.077243556315942	0	-16.867065	-89.48364	19.926453	118.89627	-90.97158	-6.1232653
1448011733672	-3.3774261474609375	9.49261474609375	-0.370147705078125	-7.409718506568444	0	-15.068054	-88.43384	22.927856	120.29291	-94.089516	-8.601811
1448011733712	-0.6066741943359375	7.21697998046875	-1.227081298828125	-7.486422315574798	0	-13.267517	-85.43396	28.927612	118.67697	-97.19807	-10.43119
1448011733755	-0.1948699951171875	6.727813720703125	-1.422271728515625	-7.54592045679395	0	-13.267517	-85.43396	28.927612	117.07608	-98.73985	-10.946825
1448011733796	-0.6173858642578125	6.723052978515625	-1.555572509765625	-7.673504923710105	0	-14.016724	-83.18329	31.92749	110.847626	-102.277664	-11.708141
1448011733836	-0.6173858642578125	6.723052978515625	-1.555572509765625	-7.673504923710105	0	-14.016724	-82.133484	31.92749	110.04108	-102.278336	-11.708141
1448011733877	-1.8278045654296875	7.339569091796875	-2.257781982421875	-8.00272014148799	0	-16.117859	-82.733154	30.126953	108.3465	-101.30908	-11.422946
1448011733918	-2.2158050537109375	10.071044921875	-2.743377685546875	-7.711789896406552	0	-16.267395	-83.48389	29.377747	107.61029	-99.874245	-10.656305
1448011733958	-2.1301116943359375	10.071044921875	-2.743377685546875	-7.545657235882079	0	-17.767334	-84.68323	28.027344	107.247986	-98.97921	-10.202599
1448011733999	-2.4074249267578125	11.388580322265625	-3.71337890625	-7.511436282689661	0	-19.567871	-84.23309	26.67694	105.379364	-97.514534	-9.041044
1448011734039	-3.6499786376953125	12.06341552734375	-3.859771728515625	-7.672668145152518	0	-20.46814	-82.58362	27.276611	104.696106	-97.62621	-8.769273
1448011734080	-3.3964691162109375	13.79156494140625	-2.241119384765625	-6.951083157039747	0	-19.866943	-82.43408	28.327942	104.40662	-97.88133	-9.518832
1448011734120	0.7406158447265625	10.86370849609375	0.755767822265625	-6.290907726338105	0	-20.767212	-81.53381	27.276611	104.51962	-97.09112	-9.628624
1448011734161	-0.0663299560546875	6.373138427734375	0.903350830078125	-7.121426020206918	0	-21.66748	-81.38428	27.276611	104.97638	-96.631775	-9.166703
1448011734201	0.0205535888671875	8.71185302734375	1.584136962890625	-6.5946623326251235	0	-24.217224	-80.033875	26.07727	105.18744	-95.9269	-8.263927
1448011734242	1.5332794189453125	10.981536865234375	-0.00238037109375	-6.2693078275768706	0	-27.667236	-79.28314	22.776794	103.99243	-94.09255	-6.2509017
1448011734282	0.3526153564453125	9.248626708984375	0.227325439453125	-6.6715453744977875	0	-28.717041	-79.58374	20.077515	103.33603	-91.84289	-5.16257
1448011734323	-1.7099761962890625	8.327423095703125	1.008087158203125	-7.045163044786793	0	-28.417969	-80.48401	18.876648	105.06308	-88.75179	-5.550992
1448011734367	-2.4467010498046875	8.901092529296875	1.317535400390625	-7.018782416318669	0	-28.717041	-80.93414	16.627502	105.74872	-87.035255	-5.5636463
1448011734408	-0.9613494873046875	8.8760986328125	1.050933837890625	-6.812324965304883	0	-30.667114	-80.033875	14.527893	105.424805	-85.70143	-4.771366
1448011734448	-1.0708465576171875	9.13079833984375	0.637939453125	-6.8573812499999995	0	-32.318115	-79.434204	11.827087	105.1236	-84.12448	-3.6903925
1448011734490	-1.7290191650390625	9.40692138671875	0.848602294921875	-6.886582103376494	0	-35.317993	-78.533936	11.376953	105.138306	-82.744804	-2.3654492
1448011734531	-1.9242095947265625	9.4569091796875	0.6331787109375	-6.948999906232777	0	-36.367798	-77.63367	10.627747	105.33313	-81.65844	-0.90488225
1448011734571	-2.0955963134765625	10.231719970703125	0.639129638671875	-6.844294597800821	0	-38.91754	-75.382996	9.577942	105.3692	-80.70735	0.9452369
1448011734611	-2.8406524658203125	9.674713134765625	1.5472412109375	-6.911552180035222	0	-39.81781	-75.83313	9.727478	105.35828	-80.56714	1.3050274
1448011734654	-0.0734710693359375	12.6275634765625	3.302764892578125	-5.824533036750299	0	-39.81781	-76.283264	9.727478	104.89108	-80.55128	1.5206282
1448011734694	-0.4971771240234375	12.288360595703125	5.10589599609375	-5.695994269967814	0	-37.417603	-76.13373	11.827087	105.87262	-82.15858	-0.5998945
1448011734735	0.8334503173828125	11.7515869140625	4.333465576171875	-5.6933892337472916	0	-37.417603	-76.13373	11.827087	105.87262	-82.15858	-0.5998945
1448011734778	2.6127777099609375	11.852752685546875	-0.731964111328125	-5.952726533182208	0	-32.017517	-77.33307	19.776917	108.12891	-87.77771	-4.4773498
1448011734819	-3.4714508056640625	9.56878662109375	-0.277313232421875	-7.3941277031626225	0	-27.067566	-76.283264	27.427673	111.41577	-93.86214	-7.913383
1448011734859	-3.2691192626953125	9.639007568359375	-0.579620361328125	-7.400302440607991	0	-25.117493	-74.33319	30.27649	111.7684	-95.40245	-9.015198
1448011734900	-0.5066986083984375	7.020599365234375	-1.4996337890625	-7.567344103999402	0	-24.967957	-73.583984	31.777954	108.5744	-100.00613	-11.338956
1448011734941	-0.2769927978515625	7.45025634765625	-2.134002685546875	-7.561770192585234	0	-25.567627	-74.03412	31.477356	104.79401	-102.35594	-11.893793
1448011734981	-0.3246002197265625	7.45501708984375	-1.922149658203125	-7.561770192585234	0	-25.567627	-73.583984	30.27649	103.12305	-102.987656	-12.097373
1448011735023	-0.8554229736328125	5.9530029296875	-1.665069580078125	-7.953896468407165	0	-26.017761	-75.382996	27.726746	99.826904	-102.84169	-12.358188
1448011735064	-1.7123565673828125	7.63116455078125	-2.486297607421875	-7.953896468407165	0	-26.766968	-76.7334	26.07727	98.48508	-101.12246	-11.697338
1448011735107	-2.6192779541015625	9.934173583984375	-2.7850341796875	-7.678252883058002	0	-27.816772	-77.18353	23.677063	97.96893	-99.31355	-10.897792
1448011735147	-2.2407989501953125	11.58258056640625	-1.079498291015625	-6.9321812195862424	0	-30.21698	-77.63367	20.677185	96.9845	-97.93468	-9.736941
1448011735187	-2.8358917236328125	12.369293212890625	-6.4365234375	-8.046805110884279	0	-29.01764	-77.48413	19.62738	95.81207	-98.05676	-9.662037
1448011735228	-3.7892303466796875	13.0560302734375	-2.72076416015625	-7.248077815886373	0	-28.567505	-78.38287	20.22705	95.673584	-98.12206	-10.051782
1448011735268	-0.0663299560546875	12.278839111328125	-0.02142333984375	-6.3150264556750795	0	-27.067566	-78.83301	19.776917	95.4332	-97.79779	-10.960936
1448011735308	0.9608001708984375	9.4521484375	-0.5474853515625	-6.6656664991382035	0	-27.5177	-77.934265	18.577576	95.11496	-97.48138	-10.661921
1448011735349	0.3216705322265625	5.147247314453125	1.212799072265625	-7.221698276733656	0	-27.816772	-78.98407	18.276978	94.95581	-97.32074	-10.3319645
1448011735389	0.3573760986328125	9.465240478515625	1.6376953125	-6.421291758547172	0	-30.81665	-78.533936	15.127563	94.72534	-95.69843	-8.856487
1448011735430	1.0560150146484375	11.5135498046875	0.001190185546875	-6.2610739452539885	0	-31.567383	-77.7832	13.327026	93.541626	-94.03583	-7.0142746
1448011735471	-0.3888702392578125	9.1141357421875	0.327301025390625	-6.550317104442791	0	-32.917786	-77.7832	11.227417	93.29184	-92.40075	-6.431714
1448011735511	-2.1182098388671875	8.639251708984375	0.879547119140625	-7.086197642028331	0	-30.81665	-78.68347	7.4768066	95.19949	-89.26259	-7.1639633
1448011735552	-1.9837188720703125	8.670196533203125	0.91644287109375	-7.0492606062679615	0	-30.667114	-79.28314	7.1777344	95.658875	-88.36733	-7.2046046
1448011735593	-1.8123321533203125	8.901092529296875	1.019989013671875	-6.95901340963116	0	-31.716919	-78.98407	6.427002	95.88687	-87.644264	-7.014774
1448011735634	-1.5707244873046875	8.815399169921875	0.660552978515625	-7.03419427202514	0	-32.46765	-79.28314	3.8772583	95.74072	-84.7535	-5.602726
1448011735674	-1.4421844482421875	9.21173095703125	0.52130126953125	-6.927216771195554	0	-35.46753	-76.882935	1.4770508	95.159424	-82.91926	-3.9238718
1448011735714	-1.3826751708984375	9.21173095703125	0.52130126953125	-6.927216771195554	0	-35.46753	-76.882935	1.4770508	95.159424	-82.91926	-3.9238718
1448011735755	-1.2053375244140625	9.60211181640625	0.972381591796875	-6.745692310475688	0	-36.817932	-76.7334	-0.022888184	94.77066	-81.9369	-2.6070487
1448011735795	-1.6718902587890625	10.0948486328125	1.4044189453125	-6.671735199193442	0	-38.768005	-76.13373	-0.47302246	94.656525	-81.05019	-0.8845447
1448011735836	-1.8111419677734375	10.529266357421875	0.767669677734375	-6.7266983672554055	0	-39.517212	-76.13373	-0.6225586	94.59314	-80.60638	-0.22512875
1448011735876	-0.9732513427734375	11.3897705078125	1.00213623046875	-6.42744990041759	0	-39.81781	-76.283264	-0.47302246	94.504486	-80.37016	-0.12618616
1448011735917	0.5835113525390625	12.4561767578125	4.12994384765625	-5.662974539366786	0	-36.0672	-76.58386	2.3773193	95.32486	-81.2565	-1.904201
1448011735958	2.3747406005859375	8.4381103515625	1.760284423828125	-6.260738274554891	0	-32.917786	-77.63367	7.4768066	96.83362	-84.34995	-3.710549
1448011735998	2.4532928466796875	8.01678466796875	1.760284423828125	-6.260738274554891	0	-32.917786	-77.63367	7.4768066	96.83362	-84.34995	-3.710549
1448011736039	0.2823944091796875	10.6328125	-0.439178466796875	-6.569930656001016	0	-29.467773	-76.4328	14.376831	99.82077	-90.81788	-6.439176
1448011736079	-2.2955474853515625	11.118408203125	-0.298736572265625	-6.886989727119762	0	-28.266907	-75.83313	19.177246	100.43875	-92.667534	-7.4299335
1448011736120	-0.5150299072265625	9.0189208984375	-2.041168212890625	-7.264411419599185	0	-25.567627	-76.13373	22.927856	99.220825	-97.25489	-10.225647
1448011736160	-1.1946258544921875	7.663299560546875	-2.062591552734375	-7.707533027909706	0	-24.667358	-74.783325	23.977661	97.091	-99.501045	-11.323185
1448011736200	-1.7552032470703125	7.701385498046875	-1.872161865234375	-7.788179730149791	0	-25.267029	-75.98419	23.677063	95.079834	-100.73153	-12.073601
1448011736244	-1.1589202880859375	6.385040283203125	-1.174713134765625	-7.7937893133353136	0	-25.717163	-75.382996	22.627258	92.28735	-101.1719	-12.748617
1448011736284	-1.2898406982421875	6.930145263671875	-1.9185791015625	-7.877422593988	0	-27.067566	-76.4328	20.826721	90.91272	-100.7451	-12.442717
1448011736324	-2.0765533447265625	9.4521484375	-2.3280029296875	-7.5599152951324164	0	-27.667236	-76.4328	19.326782	90.36105	-99.70132	-11.6776905
1448011736365	-3.1858062744140625	10.29718017578125	-2.970703125	-7.771736177439092	0	-29.766846	-75.98419	17.077637	90.10321	-98.367645	-10.854542
1448011736405	-2.6883087158203125	11.386199951171875	-1.377044677734375	-7.100893704479883	0	-30.368042	-76.4328	17.376709	89.908264	-97.82209	-10.500581
1448011736445	-3.0501251220703125	11.3231201171875	-5.92236328125	-8.273422999824486	0	-30.81665	-76.13373	19.02771	89.58368	-97.85485	-10.329202
1448011736486	-3.7487640380859375	14.021270751953125	-2.698150634765625	-7.054445193470839	0	-30.667114	-76.13373	18.577576	89.31909	-98.27644	-11.377359
1448011736526	0.2562103271484375	12.614471435546875	0.49273681640625	-6.150999012597031	0	-29.467773	-76.7334	16.027832	89.35388	-97.50374	-11.8836565
1448011736567	1.5439910888671875	7.96917724609375	-0.51177978515625	-6.806368583958116	0	-29.917908	-76.882935	16.027832	89.102844	-96.912025	-11.63514
1448011736607	0.1455230712890625	5.43646240234375	1.648406982421875	-7.117661091051957	0	-31.567383	-76.283264	15.2771	89.203156	-95.82782	-10.663985
1448011736648	0.0812530517578125	9.993682861328125	1.69244384765625	-6.376238537888144	0	-33.216858	-75.382996	13.926697	88.9422	-94.73482	-9.156201
1448011736690	-0.1282196044921875	9.938934326171875	-0.053558349609375	-6.682955274351721	0	-35.017395	-75.68359	9.877014	88.35004	-92.17739	-7.8071394
1448011736730	-1.7563934326171875	9.198638916015625	0.355865478515625	-7.014090203792641	0	-35.46753	-75.98419	8.526611	89.62491	-89.874756	-8.154333
1448011736771	-2.2634124755859375	8.7523193359375	0.8807373046875	-7.09189114543768	0	-35.768127	-75.83313	7.4768066	90.67114	-88.00318	-8.202387
1448011736811	-1.7587738037109375	8.62139892578125	0.972381591796875	-7.007491800257234	0	-37.417603	-75.68359	5.8273315	90.95392	-86.68132	-7.670913
1448011736852	-1.4945526123046875	9.205780029296875	0.998565673828125	-6.855364141783935	0	-38.91754	-76.13373	3.8772583	90.943054	-85.18992	-7.0099826
1448011736892	-1.8861236572265625	8.96417236328125	0.591522216796875	-7.0372009816475405	0	-40.867615	-75.08392	1.7776489	90.68506	-83.81065	-6.2891474
1448011736932	-1.2220001220703125	9.129608154296875	0.279693603515625	-6.945253876976399	0	-43.41736	-74.93286	0.27770996	90.07144	-82.68912	-5.177162
1448011736973	-1.3588714599609375	9.860382080078125	1.096160888671875	-6.708589104475411	0	-45.36743	-74.03412	-0.92315674	89.6297	-81.59689	-3.8628054
1448011737013	-2.0194244384765625	10.4947509765625	1.312774658203125	-6.6780058754307765	0	-47.46704	-72.53418	-1.8234253	89.46912	-80.76749	-2.7194176
1448011737055	-2.1074981689453125	10.12579345703125	1.134246826171875	-6.78128313820555	0	-49.26758	-73.13385	-2.5726318	89.36307	-80.210846	-1.9204521
1448011737095	0.0919647216796875	12.174102783203125	2.0328369140625	-6.0252107818758835	0	-50.167847	-71.93298	-3.3233643	89.22919	-79.71257	-1.3962083
1448011737135	-1.0565643310546875	12.6466064453125	3.424163818359375	-5.931783109795098	0	-49.26758	-73.28339	-3.022766	90.03302	-80.045746	-2.243346
1448011737176	1.1190948486328125	11.11602783203125	3.6705322265625	-5.818410572800413	0	-47.317505	-75.83313	-0.32348633	91.346405	-82.02952	-4.0546227
1448011737216	2.7948760986328125	8.57855224609375	0.612945556640625	-6.34446570142532	0	-44.317627	-77.034	5.3771973	93.28012	-86.05656	-5.833157
1448011737256	0.3061981201171875	10.691131591796875	-0.2808837890625	-6.533001685781903	0	-41.467285	-78.23334	13.027954	95.826965	-90.732506	-7.36684
1448011737297	-3.0453643798828125	11.38262939453125	-0.386810302734375	-6.986944930330296	0	-39.517212	-77.18353	19.177246	97.81787	-94.36866	-9.048809
1448011737338	-2.0729827880859375	10.0377197265625	-1.372283935546875	-7.239022736716636	0	-38.31787	-77.18353	22.027588	97.54669	-97.3882	-10.623311
1448011737378	-0.8090057373046875	7.0194091796875	-1.669830322265625	-7.675737939678593	0	-37.268066	-77.63367	23.527527	95.782166	-99.88385	-11.4122715
1448011737418	-0.8839874267578125	6.920623779296875	-1.7757568359375	-7.74241020334816	0	-37.268066	-78.533936	23.226929	94.75815	-100.816864	-11.5853405
1448011737459	-0.8530426025390625	6.880157470703125	-1.7186279296875	-7.730910490830441	0	-37.268066	-79.28314	22.027588	92.03119	-101.82954	-12.100013
1448011737500	-0.7685394287109375	5.856597900390625	-1.951904296875	-8.035680980167447	0	-37.867737	-80.93414	20.22705	91.32144	-101.67553	-12.150351
1448011737540	-1.7278289794921875	8.22149658203125	-2.407745361328125	-7.785233570771757	0	-39.067078	-81.98395	19.477844	90.42285	-100.35125	-11.763985
1448011737581	-2.6109466552734375	9.92108154296875	-3.183746337890625	-7.775248590271814	0	-40.116882	-82.733154	17.376709	90.51553	-98.99401	-11.205885
1448011737621	-3.2655487060546875	11.005340576171875	-1.512725830078125	-7.3111910074620905	0	-42.066956	-82.88422	15.87677	90.38202	-97.48478	-10.408074
1448011737661	-3.3917083740234375	10.34478759765625	-1.512725830078125	-7.3111910074620905	0	-42.367554	-83.332825	15.2771	90.33136	-96.98137	-10.097284
1448011737702	-3.1893768310546875	11.555206298828125	-5.38677978515625	-8.080607623824141	0	-42.066956	-83.78296	15.127563	90.111115	-96.942726	-10.355512
1448011737742	0.7501373291015625	15.149566650390625	-1.73291015625	-6.042719844729087	0	-41.61682	-84.83429	15.127563	89.921265	-96.81485	-11.124472
1448011737783	0.9250946044921875	9.053436279296875	-1.122344970703125	-6.830665539517723	0	-39.81781	-86.78284	13.777161	89.99414	-96.14422	-11.522776
1448011737823	0.0217437744140625	5.26983642578125	0.670074462890625	-7.364950012166785	0	-40.116882	-87.38403	13.4765625	90.364655	-95.46711	-11.274524
1448011737864	-0.3115081787109375	9.320037841796875	1.39251708984375	-6.581534612611755	0	-41.767883	-86.33423	13.17749	90.77319	-94.7348	-10.395273
1448011737904	0.4990081787109375	10.367401123046875	0.15234375	-6.487149284631896	0	-43.566895	-85.884094	10.926819	90.44394	-93.425964	-8.703304
1448011737945	-0.1222686767578125	9.329559326171875	0.276123046875	-6.727084827722217	0	-44.6167	-87.683105	7.4768066	90.449524	-90.79816	-7.5786963
1448011737985	-1.0898895263671875	8.893951416015625	0.701019287109375	-6.890252768143372	0	-44.917297	-87.38403	6.7276	91.70734	-88.554855	-7.751561
1448011738026	-1.7790069580078125	9.082000732421875	0.991424560546875	-6.926596816848818	0	-44.6167	-88.583374	4.777527	92.65674	-86.67563	-7.531296
1448011738067	-1.4790802001953125	8.4952392578125	1.26873779296875	-6.928250325171394	0	-46.2677	-88.43384	3.7277222	93.21811	-85.414314	-6.8823037
1448011738108	-0.8149566650390625	9.077239990234375	0.70458984375	-6.81212622837579	0	-46.86737	-87.38403	1.1764526	93.23566	-83.81697	-6.113098
1448011738148	-1.2791290283203125	8.903472900390625	0.846221923828125	-6.896176354566498	0	-47.76764	-87.683105	-0.32348633	92.97348	-82.30986	-5.208285
1448011738189	-1.4433746337890625	9.558074951171875	0.77362060546875	-6.825271282321998	0	-52.416992	-87.38403	-2.4230957	92.90427	-81.232994	-4.1053376
1448011738229	-1.9015960693359375	9.677093505859375	1.4044189453125	-6.776762317576082	0	-52.568054	-87.083435	-2.722168	92.68793	-80.14422	-2.728139
1448011738270	-1.6100006103515625	10.031768798828125	0.533203125	-6.814114191599805	0	-55.117798	-86.33423	-4.373169	92.03815	-79.45595	-1.5252401
1448011738310	-1.1315460205078125	11.45880126953125	0.98785400390625	-6.442806122110082	0	-56.31714	-86.33423	-4.672241	91.271515	-79.04904	-0.582031
1448011738351	-0.1044158935546875	12.219329833984375	1.8804931640625	-6.065556415050448	0	-56.31714	-86.6333	-4.9728394	91.11456	-79.075226	-0.6165612
1448011738391	-0.2460479736328125	13.04412841796875	4.33465576171875	-5.667429043630272	0	-54.966736	-89.33411	-3.6224365	91.33417	-79.93462	-1.5402411
1448011738431	2.0879058837890625	9.838958740234375	2.07806396484375	-6.0642840607897375	0	-49.118042	-92.63306	5.3771973	92.95816	-84.83101	-4.413536
1448011738472	1.0929107666015625	9.99725341796875	-0.317779541015625	-6.52446888690371	0	-47.16797	-92.333984	14.227295	93.957794	-90.00576	-5.877148
1448011738512	-2.6121368408203125	10.2186279296875	-0.096405029296875	-7.066146377044429	0	-44.01703	-92.03339	21.577454	95.28851	-94.00092	-7.2228513
1448011738553	-2.5121612548828125	9.953216552734375	-1.0330810546875	-7.275202314300643	0	-41.91742	-90.53345	26.226807	95.19516	-97.61048	-8.656102
1448011738593	-1.0565643310546875	8.917755126953125	-0.8331298828125	-7.155550978747104	0	-41.767883	-91.13312	28.627014	92.71631	-101.15943	-9.408136
1448011738633	-0.2829437255859375	7.09796142578125	-2.4517822265625	-7.717764086474762	0	-42.367554	-89.78424	29.676819	89.01526	-104.11959	-9.479194
1448011738674	-0.0484771728515625	6.1529541015625	-1.13543701171875	-7.577465657482216	0	-41.166687	-89.93378	29.527283	86.863464	-105.29743	-9.720978
1448011738714	-0.7744903564453125	5.913726806640625	-1.793609619140625	-7.9774945270830635	0	-41.767883	-91.433716	28.027344	85.51553	-105.15557	-9.717208
1448011738754	-1.1553497314453125	7.206268310546875	-2.97308349609375	-8.052224018915041	0	-42.218018	-92.78412	26.226807	84.6814	-104.15265	-9.449557
1448011738795	-1.6599884033203125	8.805877685546875	-3.66815185546875	-7.94173072126816	0	-42.66815	-93.98346	24.127197	84.594574	-101.32962	-8.942639
1448011738835	-2.7394866943359375	11.231475830078125	-1.315155029296875	-7.127638614230262	0	-44.01703	-95.33386	20.977783	84.44061	-99.62811	-8.236205
1448011738876	-1.3100738525390625	11.374298095703125	-7.0411376953125	-8.067897452739093	0	-42.367554	-96.5332	22.32666	84.73877	-99.59582	-8.36852
1448011738916	-3.2631683349609375	10.926788330078125	-1.360382080078125	-7.434927140324721	0	-40.116882	-97.58301	23.226929	85.99689	-99.22536	-9.425633
1448011738957	-0.7863922119140625	15.6173095703125	-2.431549072265625	-6.285326326152308	0	-37.716675	-98.48328	22.776794	85.993225	-98.980125	-11.1963215
1448011738997	0.3585662841796875	6.630218505859375	-0.353485107421875	-7.230692454567286	0	-37.268066	-98.48328	21.72699	85.822815	-97.95087	-10.961638
1448011739038	0.3585662841796875	6.630218505859375	-0.353485107421875	-7.230692454567286	0	-37.268066	-98.48328	21.72699	86.16229	-97.95087	-10.961638
1448011739078	0.0800628662109375	7.814453125	1.743621826171875	-6.702064959549849	0	-38.467407	-97.883606	20.677185	87.112915	-96.29336	-10.032185
1448011739120	0.1098175048828125	10.493560791015625	-0.30230712890625	-6.597071815516774	0	-41.01715	-97.883606	16.926575	86.471344	-93.66978	-7.6752787
1448011739160	-0.6471405029296875	10.493560791015625	-0.30230712890625	-6.597071815516774	0	-41.91742	-98.184204	15.577698	86.276855	-92.722626	-7.4049673
1448011739201	-2.0063323974609375	8.620208740234375	0.40228271484375	-7.1577966744174475	0	-40.267944	-99.53308	12.127686	87.111115	-90.67176	-7.7990575
1448011739241	-2.3407745361328125	8.84515380859375	0.470123291015625	-7.165671647417037	0	-40.116882	-99.983215	10.476685	88.10889	-88.683754	-8.282774
1448011739281	-1.8956451416015625	8.786834716796875	0.752197265625	-7.041932417663867	0	-41.01715	-99.83368	8.227539	88.099884	-87.23708	-8.062444
1448011739322	-1.0244293212890625	8.979644775390625	1.043792724609375	-6.806765308102638	0	-41.767883	-100.43335	5.3771973	87.743164	-85.88461	-7.3569665
1448011739362	-1.3814849853515625	8.95465087890625	0.662933349609375	-6.93673950806593	0	-42.967224	-99.68414	3.5766602	87.25235	-84.37046	-6.5058594
1448011739403	-1.3112640380859375	8.555938720703125	0.322540283203125	-7.0557428670648275	0	-45.516968	-98.93341	2.0767212	86.62747	-82.52346	-4.796293
1448011739443	-0.9089813232421875	10.776824951171875	0.336822509765625	-6.61212568679989	0	-48.217773	-97.43347	0.27770996	85.826965	-81.34068	-2.93447
1448011739484	-2.8347015380859375	9.98297119140625	1.834075927734375	-6.809543847530598	0	-48.96698	-98.33374	0.12664795	85.67993	-81.0637	-2.5045555
1448011739524	-1.6254730224609375	11.0755615234375	0.784332275390625	-6.607471872467876	0	-49.86725	-98.03314	-0.7720947	85.18915	-80.481636	-1.9133925
1448011739564	-0.0175323486328125	12.4180908203125	1.456787109375	-6.0840544218969335	0	-49.118042	-98.03314	-0.7720947	84.963196	-80.43795	-1.9656495
1448011739605	0.0265045166015625	13.300018310546875	4.004974365234375	-5.643488520303255	0	-44.917297	-99.83368	3.1265259	85.114716	-81.83433	-3.6778433
1448011739646	1.4761505126953125	9.938934326171875	1.979278564453125	-6.146768937871542	0	-40.71808	-100.73395	9.127808	85.41513	-85.02042	-5.8681536
1448011739686	3.4209136962890625	8.789215087890625	-0.35467529296875	-6.3634250855916505	0	-36.96747	-100.13428	18.727112	87.339355	-89.4298	-7.659296
1448011739726	-1.0922698974609375	9.6044921875	-0.096405029296875	-6.905597197391531	0	-35.017395	-99.08295	23.226929	90.06897	-93.70275	-9.1991625
1448011739767	-2.9870452880859375	12.000335693359375	-1.19732666015625	-7.010895483224811	0	-32.318115	-98.48328	30.427551	90.996765	-97.19603	-10.522941
1448011739807	-1.8242340087890625	8.78802490234375	-2.26849365234375	-7.6397365430163955	0	-30.967712	-95.93353	35.977173	89.15964	-100.5279	-11.350248
1448011739848	-1.1303558349609375	8.17864990234375	-1.1663818359375	-7.381334605977045	0	-31.716919	-95.033264	36.576843	86.935425	-102.99264	-11.362155
1448011739888	0.1086273193359375	5.678070068359375	-2.307769775390625	-7.941411641601661	0	-32.318115	-94.132996	37.026978	84.474396	-104.613205	-11.23636
1448011739928	0.1895599365234375	6.106536865234375	-1.60198974609375	-7.941411641601661	0	-32.318115	-93.83392	36.27777	83.41629	-105.001884	-11.132582
1448011739969	-0.6221466064453125	7.3050537109375	-3.785980224609375	-8.104563901709833	0	-34.86786	-94.58313	34.477234	81.61963	-104.492874	-10.2674885
1448011740009	-1.9242095947265625	8.655914306640625	-4.0799560546875	-8.1781809331666	0	-34.417725	-95.784	32.077026	82.171906	-102.68569	-10.082303
1448011740049	-1.9242095947265625	8.655914306640625	-4.0799560546875	-8.1781809331666	0	-34.417725	-95.784	32.077026	82.84677	-101.58915	-10.048212
1448011740090	-2.9334869384765625	12.086029052734375	-6.0889892578125	-8.056299209722708	0	-33.96759	-97.283936	31.477356	84.93591	-99.061134	-9.909006
1448011740130	-3.7297210693359375	12.13958740234375	-3.928802490234375	-7.689747656832569	0	-32.766724	-97.883606	32.82776	84.86157	-99.524956	-10.189565
1448011740171	0.8917694091796875	14.20574951171875	-1.72576904296875	-6.149859664957096	0	-31.117249	-96.8338	33.576965	84.782104	-100.245155	-10.84376
1448011740211	1.2500152587890625	9.648529052734375	-0.08331298828125	-6.517948099411829	0	-30.21698	-96.98334	32.977295	84.91925	-99.4692	-11.063485
1448011740252	-0.0782318115234375	7.049163818359375	-0.0428466796875	-7.174474370941152	0	-30.81665	-97.58301	30.726624	85.0076	-98.1769	-10.351602
1448011740293	-0.7959136962890625	7.653778076171875	2.02093505859375	-6.8268685626928445	0	-31.417847	-96.5332	30.577087	85.89993	-97.30974	-9.903675
1448011740333	0.6370697021484375	9.677093505859375	0.91644287109375	-6.4553903558414065	0	-33.666992	-96.38367	27.726746	86.37338	-95.88783	-8.938189
1448011740373	0.4216461181640625	10.10675048828125	-0.217803955078125	-6.595588842846043	0	-35.16693	-97.283936	26.226807	85.953674	-94.195435	-7.8149533
1448011740414	-1.2850799560546875	9.251007080078125	0.472503662109375	-6.901702276132116	0	-33.216858	-97.73407	23.977661	87.154205	-91.99193	-8.075256
1448011740454	-2.0313262939453125	8.432159423828125	0.7950439453125	-7.124086798691325	0	-30.967712	-99.53308	22.177124	89.33258	-89.707825	-8.676505
1448011740494	-2.2527008056640625	8.85467529296875	0.672454833984375	-7.10948500035889	0	-30.667114	-99.53308	21.276855	90.94064	-88.08157	-8.524342
1448011740535	-2.0670318603515625	9.160552978515625	0.577239990234375	-7.036986108426223	0	-31.716919	-100.13428	19.926453	91.839874	-86.624504	-7.7830844
1448011740575	-2.1170196533203125	8.97369384765625	0.346343994140625	-7.122756079710192	0	-32.766724	-99.83368	17.977905	92.42474	-84.22466	-6.4509563
1448011740616	-2.2407989501953125	9.032012939453125	0.40704345703125	-7.123643152361733	0	-35.768127	-100.43335	16.027832	92.46292	-83.0633	-5.262138
1448011740656	-2.0967864990234375	9.48309326171875	0.7379150390625	-6.956297945522648	0	-37.716675	-100.28381	15.426636	92.32205	-82.02235	-3.9638944
1448011740697	-2.0491790771484375	10.34002685546875	1.04736328125	-6.7507513356237165	0	-39.067078	-98.93341	14.677429	91.95026	-81.18187	-2.8416884
1448011740742	-2.0432281494140625	10.13055419921875	0.829559326171875	-6.820484567539867	0	-41.166687	-99.08295	13.6276245	91.46857	-80.58941	-2.0508966
1448011740783	-0.3603057861328125	12.51806640625	1.494873046875	-6.111652954778352	0	-41.61682	-99.53308	13.926697	90.828156	-80.28884	-1.6414847
1448011740824	-1.6683197021484375	12.6466064453125	3.550323486328125	-5.994958591172015	0	-39.517212	-99.53308	16.326904	91.26523	-81.14669	-2.7560296
1448011740864	1.2476348876953125	10.757781982421875	3.43487548828125	-5.877186257671707	0	-35.768127	-100.28381	20.677185	91.776	-83.65722	-4.917559
1448011740905	2.8555755615234375	9.64971923828125	1.676971435546875	-6.040665025076565	0	-34.117126	-100.582886	23.376465	91.776	-83.65722	-4.917559
1448011740946	2.7198944091796875	10.681610107421875	-0.51654052734375	-6.217036796870987	0	-30.667114	-97.283936	32.676697	93.20996	-90.63122	-7.7012296
1448011740986	-2.2919769287109375	10.672088623046875	-0.148773193359375	-6.937569065873189	0	-26.017761	-94.73419	41.37726	94.17972	-92.81419	-8.517787
1448011741027	-1.9146881103515625	9.40216064453125	-1.2901611328125	-7.3171600225417786	0	-22.416687	-90.834045	47.377014	95.12616	-97.79812	-11.173847
1448011741068	-1.0279998779296875	7.925140380859375	-1.798370361328125	-7.548554353516837	0	-23.316956	-90.08331	48.727417	93.03934	-100.67352	-12.359601
1448011741108	-1.2648468017578125	6.75994873046875	-2.10662841796875	-7.904135938096086	0	-22.866821	-87.83417	50.67749	89.43109	-103.239624	-13.211882
1448011741149	-1.3541107177734375	6.43621826171875	-1.742431640625	-7.949084681306857	0	-23.316956	-89.03351	50.527954	88.61691	-103.41371	-13.454373
1448011741189	-1.6528472900390625	5.387664794921875	-1.926910400390625	-8.417605388680922	0	-24.067688	-89.33411	48.876953	87.01929	-102.5382	-13.616377
1448011741229	-2.2419891357421875	8.757080078125	-2.6612548828125	-7.843481037845563	0	-26.017761	-92.03339	46.627808	86.78406	-101.12347	-13.01589
1448011741270	-2.5561981201171875	10.050811767578125	-3.126617431640625	-7.716624828898603	0	-26.766968	-92.03339	46.627808	86.83771	-100.21305	-12.556935
1448011741310	-3.1893768310546875	11.1802978515625	-4.119232177734375	-7.838939246014842	0	-29.316711	-94.73419	44.677734	86.5249	-97.96804	-11.123669
1448011741351	-4.8592071533203125	10.72802734375	-4.790496826171875	-8.76817650052697	0	-28.266907	-95.033264	44.976807	85.56131	-98.3102	-11.6802845
1448011741391	-4.9056243896484375	13.238128662109375	-4.790496826171875	-8.76817650052697	0	-28.567505	-95.033264	44.82727	85.56131	-98.3102	-11.6802845
1448011741432	-2.5050201416015625	13.441650390625	-1.552001953125	-6.743165930871298	0	-27.217102	-94.43359	45.277405	84.820404	-98.38876	-12.5829
1448011741472	2.0724334716796875	9.708038330078125	-1.091400146484375	-6.537185426215659	0	-27.5177	-94.73419	42.5766	83.921326	-96.847694	-12.309613
1448011741513	0.2264556884765625	5.51025390625	1.041412353515625	-7.203117342434909	0	-29.917908	-94.28406	41.526794	83.04468	-95.97505	-11.364651
1448011741553	0.6644439697265625	8.7999267578125	1.979278564453125	-6.423753670059458	0	-32.318115	-93.38379	42.72766	83.6864	-95.469246	-10.044037
1448011741593	0.3061981201171875	10.736358642578125	0.065460205078125	-6.473730820483132	0	-35.768127	-93.98346	38.97705	83.150665	-93.81323	-8.122354
1448011741634	-1.0363311767578125	9.003448486328125	0.777191162109375	-6.849522308819112	0	-34.56726	-94.43359	37.626648	83.601135	-91.76788	-7.927221
1448011741674	-1.3648223876953125	8.89276123046875	0.998565673828125	-6.886582103376494	0	-32.917786	-97.283936	36.427307	85.226074	-89.45419	-8.425389
1448011741716	-2.1158294677734375	8.90228271484375	0.736724853515625	-7.056175560985802	0	-33.06732	-97.58301	34.327698	86.88583	-87.18494	-8.096335
1448011741756	-1.5814361572265625	8.94989013671875	0.49749755859375	-7.001969625407665	0	-34.56726	-98.63281	32.52716	87.33197	-85.71167	-7.4350443
1448011741796	-1.8385162353515625	9.108184814453125	0.232086181640625	-7.0676668571974615	0	-36.517334	-98.184204	31.477356	87.418884	-84.21804	-6.6591473
1448011741837	-2.0967864990234375	8.970123291015625	0.24755859375	-7.138099412452343	0	-38.16681	-97.883606	30.27649	87.342896	-83.07189	-5.683661
1448011741877	-2.1884307861328125	9.277191162109375	0.770050048828125	-7.003243007962652	0	-40.71808	-97.73407	29.977417	87.16785	-82.02071	-4.385249
1448011741917	-2.3550567626953125	10.060333251953125	0.860504150390625	-6.879864508082694	0	-43.267822	-96.38367	28.927612	86.77533	-81.23436	-2.9727442
1448011741958	-2.4764556884765625	9.7520751953125	1.294921875	-6.879051301543228	0	-45.217896	-95.784	28.927612	86.279205	-80.791245	-1.9332831
1448011741998	-2.4764556884765625	9.7520751953125	1.294921875	-6.879051301543228	0	-45.217896	-95.784	28.927612	86.02048	-80.61854	-1.6686633
1448011742038	-0.4971771240234375	13.27978515625	3.274200439453125	-6.014210593935986	0	-46.417236	-95.784	29.377747	85.223755	-80.57895	-1.8377247
1448011742079	-0.0199127197265625	12.978668212890625	3.90618896484375	-5.699904922689314	0	-44.6167	-97.13287	31.626892	85.508575	-81.018425	-2.4046063
1448011742119	2.4306793212890625	9.37835693359375	2.262542724609375	-6.055389664722572	0	-40.41748	-96.5332	37.626648	86.45422	-83.21513	-4.474871
1448011742159	2.8389129638671875	9.579498291015625	-0.508209228515625	-6.355483944813331	0	-36.216736	-91.88385	46.32721	88.107605	-87.54762	-6.612188
1448011742200	-3.7856597900390625	10.729217529296875	-0.379669189453125	-6.91237451851185	0	-32.017517	-88.73291	53.97644	90.16345	-94.17172	-9.419961
1448011742240	-4.0701141357421875	10.829193115234375	-1.01165771484375	-7.40922200213474	0	-30.517578	-87.083435	56.52771	90.49634	-97.19567	-11.267736
1448011742281	-0.8899383544921875	7.69781494140625	-2.098297119140625	-7.554095561576584	0	-30.368042	-82.43408	59.677124	88.47275	-99.9589	-12.44038
1448011742321	-0.7804412841796875	6.909912109375	-2.095916748046875	-7.7982289991267955	0	-31.417847	-80.78308	60.276794	85.67465	-102.05315	-13.073611
1448011742362	-0.7804412841796875	6.909912109375	-2.095916748046875	-7.7982289991267955	0	-31.417847	-80.78308	60.276794	84.51099	-102.602165	-13.073611
1448011742402	-0.9304046630859375	6.23150634765625	-1.586517333984375	-7.879274300854695	0	-32.766724	-83.93402	57.876587	82.20642	-102.37421	-14.017759
1448011742443	-1.4850311279296875	5.6435546875	-1.98284912109375	-8.33158324128959	0	-34.417725	-85.13336	56.22711	81.67844	-101.32956	-13.803435
1448011742483	-2.2015228271484375	8.256011962890625	-2.295867919921875	-7.84985725679487	0	-36.216736	-86.78284	54.27704	81.641815	-99.80712	-13.082967
1448011742524	-2.7014007568359375	10.5233154296875	-3.233734130859375	-7.664596138660766	0	-36.66687	-87.38403	53.37677	81.54108	-98.00722	-12.122059
1448011742564	-3.2298431396484375	11.38739013671875	-1.7186279296875	-7.269097474408584	0	-39.21814	-88.2843	51.727295	81.12689	-97.21623	-11.518746
1448011742604	-4.2926788330078125	11.060089111328125	-5.261810302734375	-8.579571077934208	0	-39.067078	-88.2843	52.627563	80.62839	-97.501854	-12.026779
1448011742645	-0.0401458740234375	12.895355224609375	-0.8759765625	-6.345497171697157	0	-39.067078	-90.23285	51.727295	80.099304	-97.55205	-12.909465
1448011742685	1.3047637939453125	10.276947021484375	-0.5093994140625	-6.479091712802628	0	-40.116882	-91.433716	48.727417	78.721954	-95.714714	-12.620433
1448011742725	0.2490692138671875	6.546905517578125	-0.28802490234375	-7.255531629865329	0	-41.767883	-91.13312	46.92688	78.351685	-95.19559	-11.9959345
1448011742766	-0.4340972900390625	7.63592529296875	1.738861083984375	-6.816501492105308	0	-41.91742	-90.68298	47.227478	78.99515	-94.73528	-11.226908
1448011742806	-0.0270538330078125	10.12103271484375	0.714111328125	-6.519033999147554	0	-46.2677	-90.08331	45.42694	78.6853	-93.602455	-9.348411
1448011742847	0.1788482666015625	9.81158447265625	0.029754638671875	-6.641132044400119	0	-48.36731	-89.48364	43.62793	78.71011	-91.90888	-8.44154
1448011742887	-0.1615447998046875	8.9903564453125	0.270172119140625	-6.7901478182725254	0	-47.76764	-92.03339	42.72766	79.270874	-90.77745	-8.566015
1448011742928	-1.5100250244140625	8.6951904296875	0.95452880859375	-6.95358506595791	0	-46.417236	-95.033264	39.27765	80.99176	-87.41236	-8.919657
1448011742968	-1.4469451904296875	8.882049560546875	0.834320068359375	-6.930939304007413	0	-48.217773	-94.43359	37.47711	81.35419	-86.20687	-8.4965515
1448011743009	-1.5052642822265625	9.26171875	0.70458984375	-6.885970774431956	0	-48.96698	-95.632935	36.427307	81.55414	-84.749275	-7.8848042
1448011743049	-1.9468231201171875	8.879669189453125	0.736724853515625	-7.0372009816475405	0	-50.46692	-95.93353	34.62677	81.90259	-83.292404	-7.1855006
1448011743089	-1.9991912841796875	9.231964111328125	0.727203369140625	-6.985257022570799	0	-54.067993	-96.5332	33.7265	81.802124	-82.11156	-6.0975986
