timestamp	accel_x	accel_y	accel_z	accel_mag	temperature	mag_x	mag_y	mag_z	azimuth	pitch	roll
1448012853235	-3.5190582275390625	3.795196533203125	9.394134521484375	-6.696893771568053	0	-19.117737	-25.283813	-50.572205	73.012695	-35.81708	-20.823347
1448012853275	-3.6773529052734375	3.63214111328125	7.965911865234375	-6.992226166757126	0	-19.866943	-26.483154	-50.723267	74.81622	-35.543346	-20.779589
1448012853316	-2.8942108154296875	4.719970703125	8.3551025390625	-6.615853625441562	0	-20.916748	-26.03302	-51.1734	75.62836	-34.95542	-20.71195
1448012853356	-2.8085174560546875	4.929443359375	7.874267578125	-6.645082408487134	0	-20.167542	-25.883484	-50.42267	75.83789	-34.771847	-20.541521
1448012853396	-2.0122833251953125	5.580474853515625	6.83880615234375	-6.580612138791581	0	-20.767212	-25.733948	-50.723267	75.755005	-34.90838	-20.413275
1448012853437	-2.7490081787109375	5.190093994140625	7.263702392578125	-6.691349093891823	0	-18.966675	-26.483154	-50.12207	75.67029	-34.992672	-20.632994
1448012853477	-2.9727630615234375	4.91278076171875	7.596954345703125	-6.718401164772832	0	-19.267273	-25.134277	-50.42267	75.97058	-34.722424	-20.696741
1448012853517	-2.8537445068359375	5.0484619140625	7.020904541015625	-6.770875712742972	0	-20.018005	-25.43335	-50.572205	76.00897	-34.565365	-20.895025
1448012853558	-2.7418670654296875	5.511444091796875	7.5743408203125	-6.590403823352858	0	-19.41681	-25.733948	-50.572205	75.96234	-34.012234	-20.845371
1448012853598	-2.5323944091796875	5.866119384765625	7.836181640625	-6.464458977210725	0	-20.46814	-24.983215	-50.572205	76.081604	-33.43312	-20.607164
1448012853639	-3.2810211181640625	5.628082275390625	7.0411376953125	-6.7425832160154435	0	-21.217346	-24.383545	-50.42267	76.16864	-33.126312	-20.514383
1448012853679	-2.6133270263671875	5.83636474609375	7.79095458984375	-6.48786645999256	0	-22.117615	-23.632813	-51.1734	76.639984	-31.608795	-19.341698
1448012853719	-1.9575347900390625	5.366241455078125	9.1549072265625	-6.262081148082075	0	-22.866821	-21.684265	-50.42267	77.1759	-30.371944	-18.04178
1448012853759	-2.0860748291015625	4.700927734375	8.458648681640625	-6.478912877250316	0	-23.76709	-22.73407	-50.723267	77.638214	-29.58854	-17.235836
1448012853800	-3.1786651611328125	5.616180419921875	9.079925537109375	-6.412864477614904	0	-24.067688	-22.283936	-49.822998	77.77042	-29.147572	-16.669024
1448012853841	-2.3419647216796875	4.88421630859375	8.93115234375	-6.384575620412358	0	-25.41809	-21.833801	-49.822998	77.63855	-29.105831	-15.8563175
1448012853881	-2.6157073974609375	4.259368896484375	8.632415771484375	-6.600967882849341	0	-25.717163	-20.1828	-49.372864	77.55295	-28.801271	-15.042887
1448012853922	-2.2860260009765625	4.078460693359375	8.763336181640625	-6.557635415086302	0	-26.467896	-19.883728	-48.92273	77.72305	-27.935566	-13.910396
1448012853963	-1.8789825439453125	4.266510009765625	8.51934814453125	-6.50404407914846	0	-27.366638	-19.132996	-48.773193	77.82086	-26.91405	-13.057556
1448012854003	-1.6326141357421875	4.24627685546875	8.489593505859375	-6.4744451078039695	0	-27.816772	-18.833923	-49.5224	77.89505	-25.762056	-12.901151
1448012854044	-1.6861724853515625	3.91064453125	8.649078369140625	-6.509093303260922	0	-27.967834	-17.633057	-49.072266	78.10541	-24.452574	-12.743457
1448012854084	-2.0860748291015625	2.966827392578125	7.792144775390625	-6.861621674295854	0	-28.717041	-17.48352	-49.072266	79.15289	-23.649143	-12.064491
1448012854125	-1.5064544677734375	2.962066650390625	8.25750732421875	-6.690012201327237	0	-29.01764	-15.834045	-48.773193	80.4718	-22.36052	-11.459829
1448012854165	-2.4954986572265625	2.397918701171875	9.977325439453125	-6.663393757419275	0	-29.01764	-15.834045	-49.223328	81.8418	-20.167461	-11.221909
1448012854206	-1.9694366455078125	2.469329833984375	10.29034423828125	-6.521750319001216	0	-30.21698	-14.933777	-48.173523	83.10281	-18.516743	-10.488573
1448012854246	-1.4886016845703125	3.350067138671875	8.396759033203125	-6.603753689715242	0	-29.917908	-15.682983	-48.62213	83.547	-17.975443	-10.194672
1448012854286	-0.7209320068359375	3.69403076171875	7.958770751953125	-6.500262221303465	0	-30.967712	-15.232849	-47.872925	84.02411	-17.532393	-9.890931
1448012854327	-1.2767486572265625	3.10369873046875	10.355804443359375	-6.316219717480405	0	-32.318115	-15.232849	-47.122192	85.08334	-16.273254	-7.800548
1448012854367	-0.7399749755859375	3.72735595703125	8.382476806640625	-6.434678027580421	0	-32.766724	-14.933777	-46.072388	85.39508	-16.251772	-7.144927
1448012854408	-1.1006011962890625	3.357208251953125	8.575286865234375	-6.5154157266876656	0	-33.666992	-15.232849	-45.472717	86.664154	-15.951699	-5.5370855
1448012854448	-0.9946746826171875	3.169158935546875	10.496246337890625	-6.247003029720876	0	-34.117126	-14.784241	-44.873047	87.069885	-15.549245	-5.065297
1448012854489	-0.8149566650390625	3.66546630859375	9.04302978515625	-6.3578988780250985	0	-34.117126	-14.033508	-44.57245	87.61243	-14.593017	-4.8684273
1448012854530	-0.6423797607421875	3.57025146484375	9.744049072265625	-6.246835853828629	0	-34.56726	-13.73291	-44.873047	88.064575	-14.1121235	-4.621039
1448012854570	-0.5578765869140625	3.414337158203125	10.921142578125	-6.0947806146561945	0	-34.716797	-13.583374	-44.273376	88.5957	-13.7804165	-4.289
1448012854611	-0.4852752685546875	2.67999267578125	10.203460693359375	-6.285495329504398	0	-33.96759	-14.483643	-44.122314	89.24005	-13.835302	-4.511493
1448012854651	-0.1305999755859375	2.343170166015625	10.2117919921875	-6.281779127584326	0	-33.96759	-15.232849	-44.273376	89.85303	-14.13623	-5.1305866
1448012854692	-0.4579010009765625	2.38006591796875	11.13775634765625	-6.192748693616679	0	-32.766724	-14.633179	-43.97278	90.53668	-14.366311	-5.464834
1448012854732	0.0372161865234375	2.914459228515625	10.42364501953125	-6.149371481767879	0	-31.867981	-15.383911	-43.97278	91.13934	-14.520821	-5.5329943
1448012854773	-0.0948944091796875	3.078704833984375	8.115875244140625	-6.47498092379316	0	-31.417847	-18.08319	-43.522644	91.93121	-15.854419	-5.7555113
1448012854813	-0.5007476806640625	1.95159912109375	9.048980712890625	-6.566255550204529	0	-31.117249	-19.284058	-42.622375	93.57312	-16.949713	-6.1895127
1448012854854	-0.8363800048828125	2.121795654296875	9.884490966796875	-6.464458977210725	0	-30.81665	-19.734192	-42.022705	95.72879	-17.092703	-6.6354876
1448012854894	-1.7825775146484375	1.731414794921875	9.673828125	-6.704557865329125	0	-30.517578	-21.684265	-41.87317	97.88031	-17.039871	-6.9097033
1448012854935	-1.1208343505859375	2.447906494140625	9.170379638671875	-6.566622873193922	0	-30.368042	-21.983337	-41.423035	99.55762	-17.232967	-6.982428
1448012854976	-1.0387115478515625	2.87994384765625	8.130157470703125	-6.64884925453135	0	-30.368042	-23.783875	-40.522766	100.899445	-18.214495	-7.2076926
1448012855019	-0.7840118408203125	3.580963134765625	8.032562255859375	-6.5157773749099315	0	-30.667114	-23.93341	-40.37323	101.21167	-18.619843	-7.2283053
1448012855060	-0.9030303955078125	3.361968994140625	8.065887451171875	-6.562401169810228	0	-30.517578	-24.533081	-39.47296	101.93036	-19.275826	-7.2354255
1448012855100	-0.9137420654296875	3.8297119140625	9.11444091796875	-6.338111746221192	0	-30.368042	-24.83368	-40.07263	102.133514	-19.062141	-7.7037826
1448012855140	-1.3826751708984375	3.81304931640625	8.989471435546875	-6.427273797773484	0	-29.917908	-24.234009	-39.77356	102.3819	-19.218382	-8.070774
1448012855180	1.1167144775390625	4.2010498046875	8.272979736328125	-6.120037370862297	0	-29.61731	-23.632813	-39.77356	102.40375	-19.299261	-8.306699
1448012855221	-0.8232879638671875	3.433380126953125	11.086578369140625	-6.105698686505331	0	-29.316711	-23.483276	-40.222168	102.41879	-18.631573	-9.150951
1448012855261	-2.2455596923828125	3.357208251953125	8.939483642578125	-6.636247937192394	0	-29.467773	-23.783875	-39.77356	103.121185	-19.466007	-9.12224
1448012855301	-2.3491058349609375	3.97967529296875	7.8885498046875	-6.721293003492956	0	-29.01764	-24.983215	-39.172363	103.37482	-20.39369	-9.505197
1448012855342	-2.2110443115234375	1.895660400390625	12.833770751953125	-6.268466757621992	0	-29.917908	-24.383545	-39.172363	103.33435	-19.955393	-9.244105
1448012855382	-1.6123809814453125	1.9444580078125	10.17132568359375	-6.565704643781144	0	-30.368042	-23.184204	-39.323425	103.08807	-19.43456	-8.927675
1448012855422	-1.4421844482421875	2.777587890625	8.54315185546875	-6.663583089792299	0	-31.117249	-22.583008	-39.622498	101.98923	-19.694273	-9.410658
1448012855462	-1.3279266357421875	2.606201171875	8.482452392578125	-6.682383789698456	0	-30.368042	-22.283936	-40.37323	101.129974	-20.214296	-9.594305
1448012855503	-1.4005279541015625	2.320556640625	9.377471923828125	-6.597628106955193	0	-30.21698	-20.933533	-39.622498	100.83594	-20.40121	-9.603819
1448012855543	-1.7920989990234375	2.205108642578125	9.4072265625	-6.672874388837675	0	-31.417847	-21.383667	-40.37323	100.68506	-20.256529	-9.736269
1448012855583	-1.4659881591796875	2.471710205078125	7.7457275390625	-6.848315094017998	0	-31.716919	-19.734192	-40.222168	100.42987	-20.54547	-9.660123
1448012855624	-1.3398284912109375	3.05609130859375	8.201568603515625	-6.657341131488483	0	-30.967712	-19.58313	-40.222168	99.85867	-20.710663	-9.762428
1448012855664	-1.0863189697265625	2.804962158203125	8.660980224609375	-6.584857705357869	0	-30.067444	-19.132996	-41.57257	98.720825	-20.821455	-10.997983
1448012855704	-3.7166290283203125	3.30126953125	7.537445068359375	-7.137876415345893	0	-28.417969	-18.38379	-42.922974	96.92059	-21.70127	-13.358676
1448012855745	-3.7975616455078125	3.235809326171875	9.169189453125	-6.8727565935126895	0	-27.967834	-18.38379	-44.422913	94.463135	-22.679256	-15.547964
1448012855785	-0.9673004150390625	6.173187255859375	10.267730712890625	-5.87294806398546	0	-29.01764	-16.734314	-43.97278	92.09378	-24.002066	-14.301224
1448012855825	-2.2241363525390625	4.337921142578125	7.6695556640625	-6.67876681165674	0	-30.21698	-17.933655	-43.222046	91.42886	-25.790997	-13.111569
1448012855865	-2.6585540771484375	5.2864990234375	6.159210205078125	-6.842286394564976	0	-29.467773	-18.533325	-42.922974	91.469666	-26.596493	-13.082468
1448012855905	-1.9242095947265625	4.606903076171875	9.99993896484375	-6.245331623945049	0	-30.967712	-16.734314	-43.373108	92.27289	-25.175705	-11.864588
1448012855946	-1.4933624267578125	4.48193359375	10.01898193359375	-6.200001450038286	0	-31.716919	-16.28418	-43.97278	92.60913	-24.843307	-11.527564
1448012855986	-1.2684173583984375	4.204620361328125	8.565765380859375	-6.41514479849887	0	-31.716919	-16.433716	-44.122314	93.04913	-24.887205	-11.635228
1448012856027	-1.7623443603515625	3.509552001953125	10.110626220703125	-6.363079437798477	0	-31.716919	-15.834045	-44.273376	93.85159	-24.191553	-12.020463
1448012856067	-1.5850067138671875	3.215576171875	10.208221435546875	-6.365845592380257	0	-32.46765	-14.334106	-44.422913	95.66232	-22.799673	-11.40988
1448012856107	-1.0851287841796875	3.36553955078125	8.770477294921875	-6.48231239789283	0	-32.46765	-15.983582	-44.72351	96.12436	-22.82866	-11.331078
1448012856148	-0.8744659423828125	2.819244384765625	9.403656005859375	-6.406732754056555	0	-33.216858	-16.734314	-44.57245	97.12262	-23.497469	-11.128704
1448012856189	-1.3291168212890625	3.357208251953125	8.98590087890625	-6.48786645999256	0	-33.96759	-18.533325	-44.422913	97.97235	-24.099585	-11.043812
1448012856230	-1.4862213134765625	3.47027587890625	9.34771728515625	-6.440330276613898	0	-33.517456	-17.933655	-44.72351	99.07312	-23.243603	-10.083417
1448012856270	-1.6004791259765625	3.5345458984375	7.7552490234375	-6.69383341769762	0	-33.666992	-17.633057	-45.32318	99.12973	-23.491125	-10.172819
1448012856311	-1.3160247802734375	3.63690185546875	8.372955322265625	-6.536457434688674	0	-33.517456	-17.933655	-45.32318	99.00723	-23.472261	-10.333701
1448012856351	-1.3779144287109375	3.9725341796875	8.27655029296875	-6.509454258006584	0	-33.216858	-18.38379	-46.372986	98.84329	-23.334913	-10.674032
1448012856391	-1.4755096435546875	4.464080810546875	7.884979248046875	-6.509093303260922	0	-33.216858	-18.234253	-46.82312	98.855865	-23.220882	-10.935592
1448012856432	-1.6457061767578125	4.547393798828125	8.649078369140625	-6.374157431317359	0	-33.666992	-17.333984	-47.273254	98.979126	-23.057884	-10.889193
1448012856472	-1.7754364013671875	4.50811767578125	9.4976806640625	-6.309406562616736	0	-33.517456	-16.88385	-48.02246	99.34195	-22.526089	-10.839333
1448012856514	-1.5088348388671875	4.16534423828125	9.83331298828125	-6.27250571890119	0	-35.017395	-18.533325	-48.92273	99.63852	-22.586714	-11.1581955
1448012856554	-1.6016693115234375	3.807098388671875	9.337005615234375	-6.409184115480883	0	-34.86786	-20.333862	-48.92273	99.95044	-23.102312	-11.312025
1448012856594	0.7334747314453125	4.825897216796875	6.066375732421875	-6.396944932304139	0	-35.46753	-22.433472	-48.173523	101.10721	-25.699295	-11.141976
1448012856635	-1.6064300537109375	4.809234619140625	7.287506103515625	-6.567725092112183	0	-37.268066	-23.632813	-46.82312	104.397156	-25.494495	-8.786042
1448012856675	-0.9899139404296875	4.158203125	8.325347900390625	-6.416373298883843	0	-37.716675	-23.632813	-46.972656	107.447205	-23.14882	-7.851962
1448012856715	-1.8444671630859375	3.235809326171875	9.272735595703125	-6.541010044296886	0	-36.817932	-23.93341	-48.173523	110.17209	-20.055286	-8.177301
1448012856755	-3.1060638427734375	3.748779296875	9.755950927734375	-6.581903676028402	0	-38.768005	-22.132874	-49.223328	112.22531	-17.326372	-7.221641
1448012856796	0.5061492919921875	3.350067138671875	13.552642822265625	-5.634207490548175	0	-39.067078	-20.783997	-49.372864	112.76956	-15.962906	-6.326464
1448012856836	-0.1615447998046875	2.06109619140625	11.236541748046875	-6.182225138089544	0	-39.517212	-20.333862	-49.673462	114.84628	-14.773185	-5.5965834
1448012856876	-1.6242828369140625	1.291046142578125	6.263946533203125	-7.371295124041511	0	-37.417603	-22.883606	-50.723267	115.65552	-15.076706	-6.1647825
1448012856917	0.0169830322265625	1.862335205078125	8.73834228515625	-6.766761871953284	0	-37.56714	-23.184204	-51.77307	117.04852	-15.021054	-7.3057895
1448012856957	-0.4698028564453125	1.864715576171875	10.053497314453125	-6.4230500839828455	0	-36.216736	-24.234009	-52.37274	118.91693	-13.930815	-7.7769036
1448012856997	-1.0279998779296875	2.538360595703125	9.473876953125	-6.492352322034691	0	-35.917664	-24.533081	-54.17328	119.71591	-13.050941	-8.075276
1448012857038	-2.2229461669921875	2.5157470703125	8.187286376953125	-6.894541058241877	0	-35.917664	-24.83368	-54.17328	119.85602	-12.78154	-8.456183
1448012857078	-2.2229461669921875	2.4490966796875	8.60028076171875	-6.8356689549546825	0	-35.46753	-24.83368	-55.37262	119.86322	-12.395155	-8.334632
1448012857118	-2.5145416259765625	2.7061767578125	8.201568603515625	-6.909497355054267	0	-36.367798	-23.783875	-55.97229	119.75479	-11.568028	-7.9832134
1448012857158	-2.0206146240234375	2.05157470703125	10.829498291015625	-6.511079043607302	0	-36.66687	-21.383667	-57.772827	119.138916	-10.231162	-7.5619736
1448012857199	-1.7504425048828125	2.1253662109375	11.88995361328125	-6.304475313565215	0	-36.817932	-20.483398	-57.922363	118.325714	-9.272468	-6.8162394
1448012857239	-1.9277801513671875	2.2967529296875	10.874725341796875	-6.453437594133384	0	-37.268066	-20.783997	-59.872437	117.90741	-9.541049	-6.695657
1448012857279	-1.5350189208984375	2.19677734375	10.42840576171875	-6.476410187906653	0	-35.917664	-21.833801	-60.0235	117.74689	-10.452883	-7.191486
1448012857320	-1.1577301025390625	2.474090576171875	10.12847900390625	-6.4235777598219865	0	-35.768127	-23.632813	-59.872437	117.77417	-11.912276	-7.441606
1448012857360	-1.2422332763671875	2.8775634765625	10.38555908203125	-6.339484587697351	0	-32.617188	-26.933289	-60.472107	118.12875	-13.664381	-7.5320134
1448012857401	0.2931060791015625	3.2774658203125	9.550048828125	-6.18436026089671	0	-29.917908	-33.683777	-60.173035	118.907196	-16.02425	-7.918833
1448012857441	-0.1996307373046875	2.850189208984375	9.207275390625	-6.363079437798477	0	-28.717041	-36.23352	-60.0235	119.58902	-17.274754	-8.260472
1448012857481	0.9679412841796875	4.36053466796875	9.339385986328125	-5.976735519567753	0	-26.017761	-41.333008	-58.673096	123.56503	-21.601927	-9.16176
1448012857522	0.5097198486328125	4.135589599609375	7.03875732421875	-6.388403579011156	0	-23.468018	-43.884277	-58.673096	125.63318	-23.157875	-11.0338335
1448012857562	-0.2877044677734375	3.65118408203125	5.937835693359375	-6.756794218049748	0	-19.117737	-44.332886	-59.422302	127.839355	-23.15111	-13.451406
1448012857602	-0.4186248779296875	2.516937255859375	9.279876708984375	-6.433442860625366	0	-17.617798	-46.28296	-59.872437	130.79791	-21.803865	-14.601826
1448012857642	-2.7014007568359375	2.13250732421875	9.19775390625	-6.869107791732407	0	-16.867065	-45.533752	-60.62317	132.63641	-20.822222	-14.373998
1448012857683	-1.2196197509765625	3.042999267578125	7.9742431640625	-6.676484557933355	0	-14.466858	-44.18335	-63.47351	136.29541	-17.012094	-14.377312
1448012857723	-4.5628509521484375	3.066802978515625	8.807373046875	-7.102653796163431	0	-12.06665	-41.333008	-66.17279	137.11774	-13.962214	-16.438112
1448012857763	-2.8811187744140625	2.8775634765625	10.235595703125	-6.607843928450711	0	-12.217712	-38.9328	-67.222595	137.05728	-12.801931	-16.4475
1448012857804	-3.3310089111328125	4.301025390625	6.2508544921875	-7.119432165330998	0	-11.46698	-41.333008	-67.37213	136.47607	-12.723567	-16.199533
1448012857844	-2.4788360595703125	4.095123291015625	9.501251220703125	-6.472302704894412	0	-11.618042	-40.733337	-67.67273	137.27481	-12.296982	-15.811452
1448012857884	-3.3786163330078125	3.038238525390625	12.2779541015625	-6.351520218874054	0	-10.566711	-39.683533	-69.17267	139.38864	-10.970703	-15.152062
1448012857925	-3.2298431396484375	2.88470458984375	9.5595703125	-6.771071748987449	0	-9.367371	-41.033936	-68.87207	140.95758	-10.650671	-15.101482
1448012857965	-2.9263458251953125	3.923736572265625	9.7357177734375	-6.530457677006718	0	-5.317688	-43.28308	-68.573	146.17181	-11.13184	-15.475181
1448012858005	-3.9368133544921875	2.326507568359375	8.8787841796875	-7.110588428519883	0	-2.9174805	-43.733215	-68.573	149.2023	-10.370092	-17.704962
1448012858049	-2.3657684326171875	2.559783935546875	10.693817138671875	-6.50692840397691	0	3.3828735	-43.133545	-69.77234	150.41138	-8.99612	-21.178112
1448012858089	-3.9165802001953125	2.0491943359375	11.9351806640625	-6.633621147280573	0	7.131958	-43.884277	-69.17267	151.53366	-9.47455	-22.059277
1448012858131	-2.8620758056640625	2.457427978515625	9.056121826171875	-6.865261189352127	0	10.282898	-45.233154	-67.822266	154.16986	-10.520628	-24.101538
1448012858171	-0.6530914306640625	1.6778564453125	7.735015869140625	-6.846907299095214	0	13.13324	-46.43402	-66.17279	155.21893	-10.90153	-24.67791
1448012858211	-0.8351898193359375	1.928985595703125	8.5455322265625	-6.701873280475447	0	14.183044	-46.583557	-66.17279	159.05396	-10.668134	-25.309206
1448012858252	-4.6056976318359375	-0.1312255859375	9.7928466796875	-7.5580619278486605	0	20.332336	-45.832825	-64.67285	166.33801	-9.426244	-26.406347
1448012858292	-3.5238189697265625	0.9637451171875	8.922821044921875	-7.284151349901684	0	23.033142	-46.43402	-63.023376	169.59021	-9.893808	-26.686762
1448012858332	-4.0153656005859375	1.250579833984375	9.029937744140625	-7.3035714389286195	0	25.43335	-48.083496	-61.523438	172.44635	-10.376922	-27.381668
1448012858373	-5.6090240478515625	1.501708984375	6.465087890625	-8.271095904548464	0	27.832031	-48.233032	-60.0235	174.39929	-10.67257	-28.363897
1448012858414	-4.3974151611328125	0.817352294921875	8.099212646484375	-7.680770801716789	0	27.832031	-48.233032	-60.173035	174.95642	-10.67277	-28.10132
1448012858454	-3.9689483642578125	1.129180908203125	7.61004638671875	-7.622503177360477	0	26.182556	-50.63324	-59.422302	176.393	-12.609031	-25.842066
1448012858494	-5.3674163818359375	2.340789794921875	7.351776123046875	-7.72690061399903	0	26.483154	-51.834106	-58.972168	176.7124	-13.475025	-25.254734
1448012858534	-3.5131072998046875	1.91351318359375	8.66217041015625	-7.149049192593806	0	26.63269	-53.182983	-59.12323	177.35553	-14.591634	-24.880163
1448012858575	-4.2248382568359375	1.93731689453125	7.773101806640625	-7.464468397306432	0	26.182556	-53.334045	-58.972168	178.84204	-15.420815	-22.866901
1448012858615	-1.8611297607421875	0.5162353515625	7.35296630859375	-7.355463141435374	0	21.533203	-57.833862	-58.22296	182.25278	-17.657183	-18.280926
1448012858655	-4.8675384521484375	1.89447021484375	5.0225830078125	-8.374987353189484	0	20.481873	-58.883667	-58.22296	188.10162	-20.350073	-12.90677
1448012858695	-1.6897430419921875	1.7730712890625	8.69073486328125	-6.8444954930064394	0	21.832275	-58.283997	-59.12323	189.40878	-20.25989	-13.975982
1448012858736	-1.2089080810546875	1.49456787109375	7.823089599609375	-6.95901340963116	0	27.532959	-57.533264	-57.772827	190.47119	-20.894464	-15.497298
1448012858776	-3.3833770751953125	2.440765380859375	6.93878173828125	-7.35789216852126	0	32.933044	-56.784058	-57.322693	192.97188	-21.170736	-17.585709
1448012858816	-3.0167999267578125	4.157012939453125	9.68096923828125	-6.517043456789873	0	39.682007	-53.182983	-57.173157	195.2001	-20.053179	-20.952106
1448012858856	-1.3862457275390625	5.297210693359375	8.751434326171875	-6.248173480877792	0	42.982483	-51.383972	-56.422424	196.46188	-19.460072	-25.088312
1448012858898	-5.8899078369140625	5.11749267578125	9.658355712890625	-6.825670522176377	0	50.183105	-51.53351	-52.072144	194.56766	-19.854141	-30.296453
1448012858939	-7.2467193603515625	6.370758056640625	7.83380126953125	-7.168828219534466	0	51.531982	-54.38385	-49.372864	190.70375	-22.230986	-31.761822
1448012858979	-6.4611968994140625	6.970611572265625	7.311309814453125	-7.010044174112612	0	51.531982	-55.88379	-47.872925	186.75818	-25.14274	-33.50997
1448012859020	-5.6530609130859375	7.703765869140625	6.525787353515625	-6.878035110916899	0	55.732727	-56.784058	-41.2735	182.13498	-29.670244	-38.158073
1448012859060	-6.0993804931640625	6.887298583984375	6.556732177734375	-7.096498476338075	0	56.481934	-59.184265	-36.772156	180.30482	-31.564165	-39.42413
1448012859100	-5.9565582275390625	6.88372802734375	6.204437255859375	-7.136093108852916	0	55.732727	-61.582947	-34.373474	176.60931	-36.64766	-39.205
1448012859141	-7.7953948974609375	7.318145751953125	5.537933349609375	-7.557003546388472	0	55.732727	-64.28375	-29.57306	174.17224	-38.606827	-39.64285
1448012859181	-6.7039947509765625	5.473358154296875	5.716461181640625	-7.688623469213849	0	55.882263	-65.33356	-26.872253	173.21216	-44.095398	-39.99534
1448012859222	-4.8842010498046875	4.921112060546875	6.778106689453125	-7.196041113440397	0	55.58319	-66.5329	-26.42212	175.69452	-45.094097	-38.67906
1448012859262	-4.4283599853515625	3.4488525390625	7.02923583984375	-7.3469804372312595	0	53.33252	-68.1839	-25.97351	177.95972	-45.813313	-37.15387
1448012859303	-5.1757965087890625	3.62738037109375	6.82928466796875	-7.5085859595134234	0	53.182983	-67.43317	-26.722717	179.64825	-45.770554	-36.16072
1448012859343	-7.0122528076171875	4.935394287109375	7.35296630859375	-7.5096220314321815	0	52.43225	-68.48297	-27.47345	181.32977	-45.612274	-34.927826
1448012859384	-6.7789764404296875	5.285308837890625	7.168487548828125	-7.424411941451922	0	52.43225	-69.38324	-27.922058	182.89	-44.80726	-34.39636
1448012859424	-7.7584991455078125	6.244598388671875	6.932830810546875	-7.478740456618798	0	51.982117	-67.134094	-30.473328	184.41873	-43.07185	-33.47595
1448012859464	-7.6359100341796875	4.81756591796875	5.188018798828125	-8.267225229966014	0	53.03192	-65.33356	-33.172607	185.60144	-40.720398	-33.991833
1448012859504	-6.6611480712890625	4.185577392578125	6.925689697265625	-7.697069479112784	0	53.93219	-62.634277	-34.672546	187.6185	-37.871216	-34.344875
1448012859545	-7.3228912353515625	2.943023681640625	4.507232666015625	-9.449717509108828	0	55.732727	-59.783936	-34.52301	188.5355	-36.74345	-35.7084
1448012859585	-7.9989166259765625	2.712127685546875	3.988311767578125	NaN	0	58.432007	-57.383728	-33.172607	189.2792	-36.03356	-37.04755
1448012859626	-7.3633575439453125	4.057037353515625	5.16302490234375	-8.443990477094019	0	59.931946	-55.88379	-31.37207	188.94965	-36.71837	-38.6363
1448012859666	-7.3240814208984375	4.068939208984375	6.427001953125	-8.02562842773644	0	60.232544	-54.38385	-28.822327	187.88324	-37.3571	-39.984764
1448012859706	-6.8170623779296875	4.437896728515625	6.60791015625	-7.750208863363795	0	61.582947	-53.933716	-26.272583	184.04384	-39.269077	-42.10869
1448012859746	-5.3067169189453125	5.201995849609375	5.7747802734375	-7.425411388381516	0	60.38208	-53.334045	-24.623108	181.23232	-41.018215	-42.893925
1448012859787	-5.8851470947265625	6.584991455078125	3.954986572265625	-7.6490942798182	0	58.432007	-57.08313	-15.022278	173.19879	-46.157036	-44.5202
1448012859828	-5.4614410400390625	7.146759033203125	5.604583740234375	-7.106618197580132	0	57.981873	-58.132935	-13.072205	165.80151	-50.947666	-44.938698
1448012859868	-6.3778839111328125	6.814697265625	6.544830322265625	-7.164319985172311	0	52.73285	-63.233948	-8.572388	158.95544	-55.042324	-43.95794
1448012859908	-7.0622406005859375	4.3724365234375	3.59912109375	-8.853018846347327	0	49.882507	-66.68396	-7.2235107	151.44153	-59.087402	-41.33504
1448012859949	-7.8239593505859375	4.9342041015625	0.693878173828125	NaN	0	48.98224	-66.5329	-6.4727783	150.54468	-59.79753	-40.436073
1448012859989	-8.460708618164063	5.75067138671875	4.078765869140625	-8.636673234046116	0	48.38257	-65.18402	-6.9229126	151.45258	-59.746346	-39.640125
1448012860032	-2.4990692138671875	3.723785400390625	2.274444580078125	-7.935995614620354	0	48.832703	-64.73389	-4.9728394	151.04858	-59.967266	-39.56402
1448012860072	-4.5807037353515625	7.925140380859375	2.15899658203125	-7.4606602677095335	0	47.332764	-63.983154	-2.4230957	148.59766	-62.933937	-39.463886
1448012860113	-9.421188354492188	4.604522705078125	4.209686279296875	NaN	0	47.183228	-63.53302	-1.9729614	148.3298	-63.62164	-39.368557
1448012860153	-6.3600311279296875	9.39501953125	4.821441650390625	-7.0036675973704	0	46.28296	-64.13422	-0.6225586	147.62305	-64.70458	-38.383434
1448012860194	-9.155776977539063	9.4188232421875	3.3372802734375	-7.909147355508987	0	44.48242	-64.43329	0.8773804	146.10693	-66.17491	-36.87763
1448012860234	-3.0156097412109375	8.7427978515625	1.131866455078125	-7.187620319775334	0	43.733215	-64.73389	0.5767822	145.80896	-66.6712	-35.49969
1448012860274	-4.3319549560546875	3.645233154296875	0.94024658203125	-9.303087556982513	0	42.681885	-63.082886	-0.47302246	147.09625	-65.34988	-35.203957
1448012860315	-5.3364715576171875	3.7059326171875	2.812408447265625	-8.719461781172265	0	44.332886	-61.883545	-0.32348633	147.86328	-64.6471	-36.06606
1448012860355	-4.8032684326171875	7.9334716796875	2.919525146484375	-7.3469804372312595	0	43.432617	-61.43341	-0.022888184	148.15729	-64.319275	-35.801273
1448012860396	-2.9144439697265625	7.32647705078125	5.6748046875	-6.630621761951966	0	42.233276	-60.983276	-1.222229	150.2107	-62.92254	-33.65141
1448012860436	-4.7449493408203125	10.54473876953125	6.061614990234375	-6.362561031151751	0	42.233276	-58.283997	-1.373291	151.25128	-62.666935	-32.97563
1448012860476	-5.9506072998046875	9.6378173828125	5.792633056640625	-6.727664609374136	0	39.382935	-58.433533	1.0269165	151.14743	-64.32237	-31.783253
1448012860517	-4.5997467041015625	6.087493896484375	2.617218017578125	-7.7805286266370235	0	38.783264	-57.383728	4.3273926	150.30795	-70.41582	-30.41804
1448012860557	-4.8199310302734375	10.248382568359375	2.207794189453125	-7.043224215286841	0	36.231995	-56.033325	9.727478	149.78867	-73.513016	-29.202278
1448012860597	-2.0825042724609375	12.250274658203125	-1.35205078125	-6.837472248539617	0	33.532715	-55.88379	13.4765625	149.71716	-81.23983	-24.178574
1448012860638	-1.0851287841796875	11.25408935546875	-0.93548583984375	-6.767936686724685	0	31.582642	-53.48358	16.326904	148.05954	-84.575485	-23.46012
1448012860679	-1.7516326904296875	9.717559814453125	-1.845977783203125	-7.332746863530433	0	30.082703	-52.28424	18.577576	145.49829	-86.3029	-24.036343
1448012860719	-4.8544464111328125	10.052001953125	-1.410369873046875	-7.860530713220797	0	29.632568	-51.083374	18.727112	143.28583	-85.75745	-25.74551
1448012860760	-4.5973663330078125	2.644287109375	-0.044036865234375	NaN	0	29.782104	-50.03357	17.077637	141.84387	-83.67453	-27.854177
1448012860800	-4.8473052978515625	7.58355712890625	0.98785400390625	-7.876805753205555	0	29.782104	-50.03357	17.077637	141.39783	-83.26913	-28.31498
1448012860840	-4.8937225341796875	5.5245361328125	1.00927734375	-8.525939645970558	0	28.433228	-49.583435	17.527771	140.57791	-84.094894	-27.21326
1448012860880	-3.4988250732421875	7.05987548828125	-3.2611083984375	-9.258930376411506	0	25.881958	-47.483826	18.127441	141.1181	-85.63191	-25.082361
1448012860920	-4.1296234130859375	6.158905029296875	1.665069580078125	-7.8845304912961485	0	25.43335	-47.483826	17.677307	143.05426	-85.44494	-22.195187
1448012860961	-4.6675872802734375	10.786346435546875	-2.580322265625	-7.925526665531501	0	24.232483	-46.28296	16.627502	146.0109	-85.681076	-19.65672
1448012861001	-4.9925079345703125	7.72161865234375	2.126861572265625	-7.602972924009359	0	23.182678	-45.983887	16.177368	147.41339	-85.56261	-17.779984
1448012861042	0.0181732177734375	10.46142578125	0.962860107421875	-6.423929589444855	0	21.68274	-42.382813	16.627502	147.99472	-86.35543	-16.184896
1448012861082	-3.2393646240234375	10.184112548828125	0.6141357421875	-7.057257593715874	0	21.083069	-41.934204	17.227173	146.81207	-87.34408	-15.828935
1448012861122	0.7775115966796875	8.863006591796875	-0.155914306640625	-6.726891591426886	0	18.832397	-38.633728	18.426514	144.80841	-88.356865	-15.201857
1448012861163	-1.0518035888671875	9.72113037109375	-2.688629150390625	-7.36105351059606	0	17.782593	-39.083862	17.227173	144.20795	-89.0515	-14.74619
1448012861203	-0.5876312255859375	7.61688232421875	3.726470947265625	-6.527008250117335	0	18.682861	-39.683533	14.826965	143.65173	-86.58793	-14.584733
1448012861244	-3.0989227294921875	4.8056640625	5.530792236328125	-7.116333550494312	0	17.481995	-37.73346	12.727356	143.49542	-82.48534	-14.396062
1448012861284	-2.0563201904296875	2.136077880859375	2.712432861328125	-8.135615095293254	0	16.732788	-37.583923	13.4765625	143.38663	-82.46938	-14.096794
1448012861325	-0.1663055419921875	1.745697021484375	-2.9849853515625	NaN	0	17.182922	-33.683777	15.2771	141.87564	-85.60981	-12.595011
1448012861365	-14.850814819335938	22.221649169921875	-1.017608642578125	-7.2860394060035345	0	14.031982	-32.933044	16.326904	139.7786	-86.47396	-11.430217
1448012861405	10.300186157226563	7.62640380859375	2.48748779296875	-5.288405918423925	0	2.482605	-34.13391	12.127686	126.27496	-83.35116	3.471099
1448012861446	1.4725799560546875	6.761138916015625	4.4132080078125	-6.25034819790797	0	3.982544	-34.13391	12.876892	127.43463	-81.14479	2.8590393
1448012861486	2.5996856689453125	10.348358154296875	-0.371337890625	-6.2602348280785876	0	3.8330078	-33.38318	13.027954	128.37943	-82.3497	2.5748951
1448012861527	-1.3493499755859375	9.0570068359375	1.53057861328125	-6.767153426422366	0	4.13208	-31.733704	11.077881	131.26093	-82.04503	0.57876766
1448012861567	-0.5900115966796875	6.020843505859375	-1.636505126953125	-7.858696824216726	0	3.982544	-31.28357	10.627747	133.69379	-81.86998	-0.577048
1448012861608	-0.4602813720703125	7.65020751953125	2.345855712890625	-6.718593869767814	0	5.0323486	-29.933167	7.6278687	137.46198	-80.75085	-0.82263917
1448012861648	0.4252166748046875	7.394317626953125	0.953338623046875	-6.8446964018380525	0	5.632019	-29.032898	6.576538	142.33069	-80.38031	-0.33725795
1448012861688	-1.3338775634765625	11.959869384765625	3.290863037109375	-6.0760698957924975	0	6.2332153	-28.433228	5.227661	145.33615	-78.4687	-0.39893416
1448012861729	-0.4793243408203125	10.68994140625	-1.298492431640625	-6.821281820343255	0	4.8828125	-26.483154	3.7277222	150.10193	-79.45906	1.0175186
1448012861770	-0.0437164306640625	10.857757568359375	1.513916015625	-6.295480925784442	0	4.7332764	-26.634216	3.427124	151.38513	-79.46744	1.848429
1448012861810	-1.7920989990234375	11.899169921875	1.453216552734375	-6.406557724441365	0	2.632141	-24.684143	1.927185	151.16788	-79.54784	1.906035
1448012861851	-2.2538909912109375	12.15863037109375	1.531768798828125	-6.424809323640663	0	1.5823364	-22.73407	1.927185	151.81271	-79.99251	1.767702
1448012861891	-0.4436187744140625	10.836334228515625	0.310638427734375	-6.535001937609704	0	-0.51727295	-21.383667	1.0269165	152.69788	-83.24058	-0.043048978
1448012861932	2.8841400146484375	9.690185546875	-0.055938720703125	-6.539734674092427	0	-1.8676758	-21.23413	1.3275146	153.29883	-87.45712	-0.72284096
1448012861972	2.8615264892578125	11.98724365234375	-1.450836181640625	-6.146281166898033	0	-3.0670166	-20.483398	1.927185	156.16748	-92.64851	-1.507994
1448012862015	-1.3826751708984375	10.65899658203125	1.160430908203125	-6.5760037207760025	0	-5.01709	-21.23413	2.5268555	160.20819	-95.71991	-4.24016
1448012862055	-2.7811431884765625	10.700653076171875	-0.59033203125	-7.099354562946811	0	-5.01709	-22.283936	2.9769897	161.305	-98.28772	-7.4864464
1448012862096	-1.0208587646484375	6.873016357421875	-0.980712890625	-7.599465046684177	0	-7.4172974	-23.632813	3.7277222	158.23871	-101.66201	-10.765707
1448012862136	-0.7030792236328125	6.08154296875	-3.1849365234375	-8.32554388300791	0	-8.317566	-24.83368	2.5268555	149.91388	-107.38516	-12.898135
1448012862176	-0.6733245849609375	5.366241455078125	-2.191131591796875	-8.224896716093593	0	-10.267639	-25.733948	1.4770508	144.07623	-109.1808	-13.155366
1448012862217	-0.1448822021484375	4.587860107421875	-2.1185302734375	-8.281986071218048	0	-11.317444	-27.983093	-1.0726929	139.32324	-109.64363	-12.969994
1448012862257	-0.8708953857421875	5.954193115234375	-3.456298828125	-8.531061328940911	0	-12.817383	-29.333496	-3.9230347	135.7008	-108.675186	-12.173848
1448012862297	-0.1222686767578125	8.2000732421875	-4.49176025390625	-7.912914621822453	0	-13.117981	-29.483032	-5.2734375	134.3316	-107.63436	-11.3920145
1448012862338	-3.0001373291015625	15.98626708984375	-4.883331298828125	-6.960058508661069	0	-15.817261	-30.833435	-9.773254	130.04776	-104.234886	-8.398589
1448012862378	-3.4988250732421875	13.21075439453125	-4.7845458984375	-7.586828970625222	0	-16.117859	-32.48291	-10.673523	128.81494	-103.77187	-8.197687
1448012862418	-1.9575347900390625	8.51190185546875	-6.76025390625	NaN	0	-17.767334	-37.43286	-12.173462	125.34378	-105.261475	-9.982777
1448012862459	6.3678131103515625	12.512115478515625	-0.044036865234375	-5.9723872863143	0	-19.866943	-38.783264	-13.072205	126.04974	-103.42188	-9.7499075
1448012862499	-0.9827728271484375	6.40765380859375	-1.753143310546875	-7.890422119191843	0	-21.817017	-39.83307	-13.072205	129.25293	-101.30741	-8.533126
1448012862539	-1.0886993408203125	8.623779296875	1.488922119140625	-6.802602317711394	0	-24.217224	-42.08374	-13.372803	130.9707	-99.69134	-8.416091
1448012862580	-0.6959381103515625	10.870849609375	3.43963623046875	-6.116810340752174	0	-25.567627	-42.08374	-13.972473	132.00925	-98.2156	-8.041236
1448012862620	-1.2529449462890625	9.872283935546875	-1.636505126953125	-7.164094775349595	0	-26.91803	-45.384216	-15.922546	132.58435	-94.12398	-6.872056
1448012862660	-0.6126251220703125	8.622589111328125	1.010467529296875	-6.803196677341738	0	-28.266907	-45.68329	-17.723083	131.83734	-92.07327	-6.93689
1448012862701	0.3704681396484375	8.3428955078125	0.234466552734375	-6.815307603694464	0	-29.167175	-46.28296	-18.173218	131.06082	-90.169495	-6.7488127
1448012862741	-0.1722564697265625	8.48333740234375	0.65936279296875	-6.811530096711273	0	-30.517578	-46.884155	-19.972229	130.49493	-88.45093	-6.0337715
1448012862781	-0.7447357177734375	9.184356689453125	0.25946044921875	-6.857179477100893	0	-31.117249	-47.93396	-20.722961	129.34006	-86.52929	-5.073302
1448012862822	-1.7421112060546875	8.93798828125	0.515350341796875	-7.029690311696797	0	-32.766724	-48.683167	-22.972107	128.4259	-84.54281	-4.2789583
1448012862862	-1.9849090576171875	9.331939697265625	0.272552490234375	-7.046240760719211	0	-35.16693	-48.83423	-24.172974	127.631805	-82.25148	-2.861976
1448012862902	-1.3410186767578125	9.6044921875	0.83074951171875	-6.79093705091883	0	-36.96747	-49.4339	-24.92218	127.26865	-81.16521	-1.7191502
1448012862943	-1.3933868408203125	9.94964599609375	1.23779296875	-6.677054965330672	0	-38.16681	-51.683044	-25.372314	126.55017	-80.53512	-0.6154118
1448012862983	-2.4145660400390625	11.05413818359375	0.45465087890625	-6.79093705091883	0	-39.81781	-52.433777	-25.523376	126.08771	-80.30543	-0.2080856
1448012863023	-1.6730804443359375	12.2562255859375	0.685546875	-6.449712748899426	0	-41.767883	-53.78418	-25.372314	125.434814	-80.35758	0.34916657
1448012863064	-0.4150543212890625	12.9560546875	-0.653411865234375	-6.21372264331284	0	-42.218018	-54.833984	-24.772644	125.16937	-81.28392	0.51754755
1448012863104	1.4666290283203125	11.471893310546875	1.75433349609375	-5.973473882199942	0	-41.767883	-63.082886	-16.522217	125.23685	-88.00704	-0.39280215
1448012863144	2.7960662841796875	11.759918212890625	-0.974761962890625	-6.121328974121484	0	-41.01715	-64.88342	-13.372803	124.99924	-91.15618	-1.231981
1448012863185	0.8322601318359375	12.75848388671875	-3.494384765625	-6.629123131015792	0	-35.317993	-71.18378	-2.2735596	126.272095	-98.59981	-5.43999
1448012863225	-2.4586029052734375	11.643280029296875	-0.767669677734375	-6.905392071172929	0	-30.967712	-74.783325	3.8772583	128.25443	-101.13526	-9.4142475
1448012863265	-0.4091033935546875	6.76947021484375	0.922393798828125	-7.10794095889881	0	-26.617432	-78.0838	8.526611	124.131165	-105.05584	-12.12089
1448012863306	-0.8518524169921875	6.492156982421875	-2.30419921875	-7.980099152291549	0	-25.267029	-78.533936	10.02655	118.542725	-109.47496	-13.087444
1448012863346	0.7739410400390625	5.563812255859375	-1.4520263671875	-7.5962319472289375	0	-22.26715	-80.48401	11.227417	112.65845	-112.37938	-13.235318
1448012863386	0.0229339599609375	3.84161376953125	-3.62054443359375	-9.31263310242645	0	-20.767212	-83.03375	10.627747	106.94678	-113.901024	-13.287355
1448012863426	-0.3555450439453125	3.939208984375	-4.428680419921875	NaN	0	-20.916748	-83.48389	9.727478	103.38568	-113.19084	-13.329674
1448012863467	-0.3329315185546875	8.563079833984375	-4.70123291015625	-7.928059235131311	0	-22.717285	-86.6333	3.8772583	101.85449	-110.06426	-12.282174
1448012863507	-0.3103179931640625	12.074127197265625	-5.414154052734375	-7.2867477917609556	0	-24.967957	-87.38403	2.0767212	101.08969	-106.66187	-9.807964
1448012863547	-4.6961517333984375	9.66876220703125	-5.606964111328125	NaN	0	-24.36676	-89.03351	4.1778564	100.38873	-105.916794	-9.144426
1448012863587	-0.1758270263671875	7.93109130859375	-5.255859375	-8.225649365974204	0	-22.26715	-91.433716	7.0266724	99.533844	-107.59494	-10.560157
1448012863628	2.1402740478515625	12.0372314453125	-0.7188720703125	-6.1379989828748664	0	-22.26715	-92.933655	6.7276	99.24634	-107.312035	-10.750464
1448012863668	2.3890228271484375	11.562347412109375	-3.079010009765625	-6.509273775694587	0	-26.167297	-93.68286	8.526611	103.30884	-104.51349	-8.591792
1448012863709	-3.7916107177734375	7.29315185546875	0.4998779296875	-7.806245264613596	0	-25.117493	-94.43359	8.827209	107.17761	-103.01372	-8.190286
1448012863749	-1.3624420166015625	9.722320556640625	2.751708984375	-6.4731952054372295	0	-26.617432	-95.4834	5.9768677	111.1452	-97.768364	-6.947274
1448012863790	-1.9325408935546875	11.004150390625	-0.960479736328125	-6.9585954774013805	0	-27.967834	-95.93353	4.626465	111.39987	-96.14848	-6.0591774
1448012863830	0.1264801025390625	8.90704345703125	0.80218505859375	-6.670406667604169	0	-28.717041	-97.73407	1.0269165	111.34445	-92.54051	-4.5041976
1448012863870	1.1583709716796875	8.20721435546875	0.167816162109375	-6.718979315839166	0	-29.01764	-96.8338	0.27770996	111.56067	-91.574196	-4.1149178
1448012863911	-0.4007720947265625	8.541656494140625	1.300872802734375	-6.733855753866189	0	-30.21698	-97.58301	-1.6723633	112.84485	-88.78689	-2.869375
1448012863952	-1.4624176025390625	9.423583984375	0.393951416015625	-6.916077936799034	0	-31.117249	-99.08295	-2.4230957	113.15079	-86.84088	-2.035425
1448012863992	-1.5397796630859375	9.089141845703125	-0.091644287109375	-7.075717744114951	0	-31.867981	-98.03314	-3.9230347	113.512146	-85.169205	-1.4335996
1448012864032	-2.0694122314453125	9.424774169921875	0.346343994140625	-7.031405244200474	0	-31.716919	-99.08295	-4.222107	113.66397	-83.7148	-0.8309422
1448012864073	-0.4091033935546875	9.731842041015625	0.562957763671875	-6.6624472665704015	0	-32.318115	-99.53308	-4.522705	114.00952	-82.5179	-0.079252414
1448012864113	-0.4828948974609375	9.9853515625	1.865020751953125	-6.4350310155371	0	-34.117126	-98.93341	-3.4729004	114.423584	-81.90526	1.2345309
1448012864153	-1.8635101318359375	11.33978271484375	-0.18328857421875	-6.758160397713436	0	-34.417725	-99.983215	-1.6723633	114.28693	-81.62505	2.3247564
1448012864194	-0.4531402587890625	13.661834716796875	1.98284912109375	-5.908966926056076	0	-34.716797	-99.08295	0.72784424	114.34735	-81.82128	2.5884395
1448012864234	-0.1936798095703125	13.20599365234375	0.363006591796875	-6.149371481767879	0	-33.06732	-98.33374	3.5766602	114.75232	-82.66099	2.5319245
1448012864274	0.2490692138671875	11.899169921875	0.89263916015625	-6.19538437421712	0	-29.167175	-95.033264	18.276978	115.12601	-89.27493	0.9593894
1448012864315	1.5749359130859375	12.219329833984375	-1.18304443359375	-6.255371858430303	0	-25.567627	-90.53345	29.82788	115.43729	-96.40284	-0.7783154
1448012864355	-1.2838897705078125	11.759918212890625	0.508209228515625	-6.492352322034691	0	-19.567871	-86.6333	37.327576	118.43292	-100.610954	-3.4566455
1448012864395	-4.7032928466796875	11.63018798828125	-0.486785888671875	-7.268862966158689	0	-15.367126	-85.2829	40.026855	120.606995	-103.03309	-7.676491
1448012864436	-1.3124542236328125	8.39288330078125	-1.100921630859375	-7.361296860041875	0	-15.068054	-77.7832	44.2276	115.459076	-107.004715	-10.298177
1448012864476	-0.1115570068359375	7.05035400390625	0.74505615234375	-7.034623602298522	0	-15.367126	-76.882935	44.377136	109.44263	-109.92443	-11.436214
1448012864516	1.4785308837890625	4.2296142578125	-3.16827392578125	-8.212902658651803	0	-19.267273	-75.68359	42.72766	100.83621	-112.76368	-11.8338375
1448012864557	0.0824432373046875	4.78900146484375	-1.900726318359375	-8.083022794363693	0	-20.617676	-76.58386	40.626526	98.76129	-112.79942	-11.961341
1448012864597	-0.5852508544921875	5.63641357421875	-4.309661865234375	-8.945495561216767	0	-21.817017	-76.58386	36.727905	94.812805	-110.33936	-11.491323
1448012864637	0.1002960205078125	7.93109130859375	-3.6990966796875	-7.725184460177626	0	-25.41809	-77.7832	32.676697	94.28543	-108.61046	-10.644767
1448012864678	-1.8825531005859375	15.439971923828125	-5.94378662109375	-7.047318897584293	0	-28.417969	-78.0838	30.577087	94.34802	-105.06136	-7.967615
1448012864718	-4.6330718994140625	11.84918212890625	-4.313232421875	-8.102816619514913	0	-30.81665	-75.68359	31.027222	92.05817	-105.05467	-6.5477285
1448012864758	-3.3012542724609375	7.211029052734375	-8.294403076171875	NaN	0	-29.766846	-75.08392	31.626892	91.41284	-106.13386	-7.4441686
1448012864799	1.2333526611328125	12.871551513671875	2.533905029296875	-5.72753035066799	0	-29.917908	-74.48425	29.226685	94.186584	-103.94948	-8.386353
1448012864839	2.0533905029296875	9.0712890625	2.95880126953125	-6.053803597987104	0	-29.766846	-74.63379	27.877808	96.906586	-101.61132	-7.664226
1448012864881	-1.9194488525390625	4.7532958984375	-0.548675537109375	-8.294921625216176	0	-33.216858	-73.73352	26.377869	97.57309	-99.97692	-7.268646
1448012864921	0.0717315673828125	11.81109619140625	2.291107177734375	-6.041771327068994	0	-35.617065	-72.984314	23.376465	99.37192	-97.16927	-5.435143
1448012864962	-1.7754364013671875	12.2086181640625	-3.3182373046875	-7.139214677627581	0	-37.716675	-73.28339	21.276855	99.33954	-95.87515	-4.435918
1448012865006	0.4978179931640625	7.862060546875	-0.07379150390625	-6.928043584688183	0	-39.21814	-73.28339	17.227173	97.96692	-93.16805	-3.4987354
1448012865046	-0.3852996826171875	7.263397216796875	0.5474853515625	-7.08160772739771	0	-39.967346	-73.13385	14.677429	97.39996	-91.29032	-3.2389562
1448012865086	-0.9101715087890625	9.543792724609375	0.24041748046875	-6.827667524046733	0	-42.066956	-72.683716	11.827087	96.92514	-89.11601	-2.482343
1448012865127	-0.7899627685546875	9.082000732421875	0.672454833984375	-6.812523715425479	0	-43.41736	-73.13385	8.526611	96.02289	-85.929054	-1.2545328
1448012865168	-0.9387359619140625	8.893951416015625	0.105926513671875	-6.96738497331156	0	-45.36743	-72.084045	5.5267334	95.690674	-84.856575	-0.8433044
1448012865208	-0.8649444580078125	9.986541748046875	0.7569580078125	-6.663583089792299	0	-47.76764	-70.88318	2.9769897	94.89703	-81.69439	1.213713
1448012865249	-0.2151031494140625	11.03271484375	0.903350830078125	-6.529367992071805	0	-50.46692	-69.5343	1.3275146	94.93463	-80.947845	2.0418441
1448012865289	-2.1170196533203125	11.248138427734375	1.579376220703125	-6.533910739603103	0	-51.81732	-68.333435	1.6265869	95.495544	-80.06566	3.2733707
1448012865329	-2.5038299560546875	12.83941650390625	1.19732666015625	-6.410585687897088	0	-51.667786	-68.63403	2.3773193	96.26056	-80.90489	3.6101096
1448012865370	-0.2079620361328125	12.9608154296875	1.467498779296875	-6.03561177768326	0	-51.667786	-68.78357	3.8772583	96.54999	-82.044075	3.2155957
1448012865410	3.7410736083984375	11.217193603515625	-2.21136474609375	-5.883552133171239	0	-49.717712	-71.18378	9.42688	96.62286	-89.476456	0.88076544
1448012865451	3.1697845458984375	12.11102294921875	-2.333953857421875	-6.208426346923301	0	-46.417236	-70.433044	17.527771	98.01004	-96.48248	-1.4868172
1448012865491	-1.0387115478515625	11.7515869140625	1.228271484375	-6.351003546334448	0	-41.31775	-71.03424	26.377869	103.51529	-100.49922	-4.196794
1448012865532	-2.7109222412109375	11.537353515625	-0.56414794921875	-6.9321812195862424	0	-35.768127	-69.833374	30.126953	104.621704	-103.634125	-7.8756676
1448012865572	-0.7566375732421875	7.66448974609375	-0.493927001953125	-7.274027163752553	0	-34.117126	-70.88318	31.176758	99.3634	-108.33351	-10.217591
1448012865612	0.2121734619140625	6.3814697265625	1.365142822265625	-6.9854679558123856	0	-31.867981	-71.03424	31.477356	97.227234	-109.93841	-10.897657
1448012865653	1.2285919189453125	3.32269287109375	-3.322998046875	-8.69831901434516	0	-30.967712	-72.38312	29.82788	89.11685	-113.90427	-11.379692
1448012865693	0.5275726318359375	3.729736328125	-4.351318359375	NaN	0	-32.167053	-74.03412	27.57721	84.02722	-114.75581	-11.305984
1448012865733	-1.0553741455078125	4.187957763671875	-5.455810546875	NaN	0	-31.117249	-75.98419	23.677063	81.90582	-113.47594	-11.359168
1448012865774	0.5811309814453125	9.0379638671875	-5.890228271484375	NaN	0	-33.36792	-77.034	18.577576	82.15167	-109.49021	-10.260118
1448012865814	-0.9292144775390625	22.90362548828125	-3.931182861328125	-5.558867881632121	0	-36.96747	-77.33307	14.376831	82.93121	-104.967155	-7.4541407
1448012865855	-4.9294281005859375	8.3857421875	-2.96356201171875	-6.59132910644448	0	-35.917664	-77.18353	15.577698	82.784485	-104.949814	-7.036364
1448012865895	-0.9113616943359375	14.431884765625	-3.824066162109375	-6.692686560422771	0	-33.36792	-77.33307	17.977905	81.1062	-107.760345	-8.906619
1448012865935	3.1067047119140625	5.204376220703125	-0.812896728515625	-7.0683187499999995	0	-32.167053	-76.58386	18.577576	82.93759	-107.262596	-8.663749
1448012865975	-0.0782318115234375	4.854461669921875	1.869781494140625	-7.228614089926195	0	-30.967712	-77.034	17.227173	86.539856	-104.910774	-9.328678
1448012866016	-0.6721343994140625	11.83013916015625	1.515106201171875	-6.246668685787032	0	-32.46765	-78.0838	15.87677	90.23395	-101.69997	-8.836013
1448012866056	-1.5040740966796875	10.61138916015625	2.214935302734375	-6.4417448224015725	0	-33.36792	-78.23334	13.17749	95.94147	-95.805336	-6.090623
1448012866096	-0.5757293701171875	9.86871337890625	0.698638916015625	-7.07288635230074	0	-33.96759	-77.034	12.127686	96.4364	-94.54508	-5.4217587
1448012866137	-0.4626617431640625	8.79754638671875	0.110687255859375	-6.900473385515685	0	-34.716797	-77.7832	9.42688	97.36514	-92.27227	-4.502125
1448012866177	-0.0699005126953125	7.327667236328125	-0.5665283203125	-7.219857182609699	0	-35.16693	-77.18353	8.076477	97.030396	-90.69429	-4.0173984
1448012866217	-0.9851531982421875	9.02130126953125	0.43798828125	-6.895563010791676	0	-35.768127	-78.38287	5.5267334	97.81534	-87.46963	-2.8429468
1448012866258	-1.2517547607421875	8.732086181640625	0.447509765625	-6.990957766596857	0	-36.66687	-76.882935	3.5766602	97.60562	-86.407074	-2.3666863
1448012866298	-0.9982452392578125	8.36669921875	0.779571533203125	-6.908265159331514	0	-37.716675	-76.4328	1.927185	97.8483	-83.43257	-0.55167264
1448012866338	-0.9661102294921875	9.77349853515625	0.0523681640625	-6.830065694851382	0	-39.967346	-75.08392	0.27770996	97.77612	-82.435555	0.25847402
1448012866379	-0.3495941162109375	10.76849365234375	0.536773681640625	-6.496664469242122	0	-41.31775	-75.08392	-0.7720947	98.428345	-80.692276	1.8592991
1448012866419	-1.9741973876953125	11.321929931640625	0.22137451171875	-6.713202667670371	0	-42.51709	-74.63379	-0.32348633	98.97107	-79.67708	3.7271373
1448012866459	-2.0206146240234375	11.98486328125	1.59246826171875	-6.40708284032198	0	-43.41736	-73.43292	1.7776489	99.21695	-79.84352	4.0770636
1448012866499	0.8941497802734375	14.264068603515625	2.186370849609375	-5.641916430579816	0	-41.467285	-73.13385	5.8273315	100.54648	-83.33799	3.3198898
1448012866540	2.6949005126953125	13.571380615234375	0.63079833984375	-5.695994269967814	0	-39.067078	-73.43292	13.027954	101.06506	-88.66487	1.3774575
1448012866580	2.4568634033203125	12.064605712890625	-0.015472412109375	-5.997926122637754	0	-36.367798	-72.23358	21.12732	102.211365	-95.104195	-0.7190653
1448012866621	-0.6542816162109375	11.086273193359375	-0.19281005859375	-6.606727890281443	0	-31.417847	-69.833374	28.927612	106.80173	-99.30081	-3.190832
1448012866661	-1.9860992431640625	11.87774658203125	-0.24517822265625	-6.815108668616572	0	-27.5177	-68.1839	33.877563	109.17035	-102.59803	-6.471977
1448012866701	-1.2220001220703125	8.855865478515625	-3.369415283203125	-7.741545503566022	0	-25.717163	-66.68396	37.176514	105.762115	-107.30704	-8.877753
1448012866742	-0.1674957275390625	6.62188720703125	0.07855224609375	-7.250637612642561	0	-25.8667	-64.582825	37.47711	101.47745	-110.42637	-10.366547
1448012866782	0.1764678955078125	2.95849609375	-3.124237060546875	-9.703029112628414	0	-27.217102	-65.03296	36.427307	95.939514	-112.85064	-10.81529
1448012866822	0.0253143310546875	3.407196044921875	-3.24920654296875	-9.378460031055482	0	-28.868103	-65.48309	34.62677	91.092224	-114.026886	-10.82667
1448012866863	-0.8958892822265625	3.990386962890625	-5.2034912109375	NaN	0	-31.117249	-67.43317	29.977417	87.95181	-111.23432	-10.183424
1448012866903	0.4704437255859375	8.871337890625	-5.737884521484375	-7.908206707047624	0	-32.167053	-68.78357	27.57721	87.59012	-109.09928	-9.3226595
1448012866944	-0.9803924560546875	22.095489501953125	-4.3798828125	-5.715730381764968	0	-36.66687	-67.8833	21.427917	85.73932	-104.826294	-6.6023026
1448012866984	-3.4857330322265625	10.129364013671875	-7.699310302734375	NaN	0	-36.216736	-67.58423	23.977661	84.52371	-105.94638	-6.99058
1448012867024	-1.4124298095703125	15.775604248046875	1.742431640625	-5.793420951028778	0	-36.216736	-66.98303	24.127197	84.0423	-106.76843	-7.8983197
1448012867065	6.0071868896484375	3.18701171875	-3.437255859375	-7.4072370118251305	0	-33.818054	-66.5329	25.927734	89.43216	-105.14725	-8.914238
1448012867105	-0.9077911376953125	3.89874267578125	-1.103302001953125	-8.432682412903592	0	-34.86786	-65.18402	26.07727	91.256836	-103.781334	-8.540651
1448012867145	0.0276947021484375	14.91986083984375	5.51531982421875	-5.2830090186875935	0	-35.617065	-64.73389	25.776672	97.05203	-99.59627	-7.01506
1448012867186	-3.2441253662109375	11.1517333984375	-0.23565673828125	-7.036771251873987	0	-36.96747	-65.93323	23.527527	99.912415	-95.89143	-6.0786743
1448012867226	0.2145538330078125	8.6094970703125	2.25421142578125	-6.478197631129679	0	-36.517334	-66.68396	20.826721	100.64456	-93.69244	-5.717923
1448012867267	0.3597564697265625	8.94036865234375	1.317535400390625	-6.548124816350301	0	-38.91754	-65.78369	20.22705	101.07086	-91.50611	-5.026856
1448012867307	-0.7935333251953125	7.3336181640625	0.120208740234375	-7.225845540718458	0	-39.21814	-66.233826	18.577576	101.32184	-90.66222	-4.6111994
1448012867348	-0.4590911865234375	8.596405029296875	0.110687255859375	-6.9346666618751724	0	-41.166687	-65.03296	17.376709	102.02646	-87.70673	-3.0180547
1448012867388	-1.2410430908203125	9.0379638671875	0.4141845703125	-6.941097365787341	0	-42.817688	-65.18402	16.027832	102.60324	-85.8486	-1.899219
1448012867429	-1.7111663818359375	9.251007080078125	-0.317779541015625	-7.119210717215207	0	-45.817566	-63.983154	14.376831	103.07596	-84.10753	-0.7382393
1448012867469	-1.9801483154296875	9.85919189453125	0.113067626953125	-6.979567774139338	0	-46.566772	-63.233948	13.6276245	102.949646	-82.38201	0.6054461
1448012867510	-0.5435943603515625	10.348358154296875	1.615081787109375	-6.427273797773484	0	-49.26758	-61.283875	13.6276245	103.41986	-81.29001	1.8932599
1448012867551	-1.9242095947265625	11.319549560546875	-0.66412353515625	-6.851736816929748	0	-50.61798	-62.03308	14.376831	103.65225	-81.08898	3.1995265
1448012867592	-1.8980255126953125	12.873931884765625	0.955718994140625	-6.3523815115122	0	-52.568054	-61.132813	17.376709	104.71295	-83.40145	3.2949882
1448012867632	0.7691802978515625	12.2276611328125	1.46868896484375	-6.003242220943734	0	-51.516724	-60.983276	19.477844	105.0199	-85.47339	2.874699
1448012867673	3.0579071044921875	12.794189453125	-1.993560791015625	-6.08389456354635	0	-50.317383	-58.283997	25.4776	105.50064	-92.027435	1.4419402
1448012867713	2.0914764404296875	13.51068115234375	-0.97833251953125	-5.982488982620642	0	-47.317505	-56.784058	35.676575	108.122925	-100.27745	-2.5495043
1448012867753	-3.6118927001953125	12.27288818359375	0.0	-6.863643071433351	0	-43.41736	-57.833862	38.076782	110.64438	-101.23719	-4.3913713
1448012867793	-1.9587249755859375	8.834442138671875	-2.491058349609375	-7.712642308575322	0	-40.267944	-59.93347	38.827515	107.42825	-105.84412	-10.022466
1448012867834	-0.1234588623046875	6.420745849609375	-0.001190185546875	-7.2973975765678425	0	-39.81781	-60.533142	38.676453	104.86871	-107.57886	-10.84476
1448012867874	1.5713653564453125	4.9056396484375	0.717681884765625	-7.1243086493729955	0	-43.267822	-63.383484	33.576965	95.970276	-111.34176	-11.05817
1448012867914	1.0774383544921875	4.066558837890625	-3.545562744140625	-8.542307926054193	0	-44.467163	-63.983154	32.377625	90.562164	-113.17086	-10.784986
1448012867955	0.2193145751953125	4.31292724609375	-4.51080322265625	-9.660180743640693	0	-45.66803	-66.5329	27.877808	87.40326	-112.80792	-10.725953
1448012867995	0.1086273193359375	5.478118896484375	-5.497467041015625	-9.507803790511513	0	-46.417236	-67.28363	26.97754	86.87521	-111.54015	-10.556592
1448012868036	-1.3088836669921875	17.822723388671875	-4.878570556640625	-6.395548964756014	0	-51.667786	-69.38324	19.477844	87.01987	-105.183075	-7.7111945
1448012868076	-4.9341888427734375	22.810791015625	-4.107330322265625	-6.095903050559647	0	-52.867126	-69.08417	17.977905	86.450226	-103.89535	-6.60809
1448012868117	-4.0843963623046875	6.85516357421875	-8.949005126953125	NaN	0	-51.667786	-69.98291	20.22705	84.11212	-106.28292	-7.969009
1448012868157	5.3656768798828125	13.178619384765625	-0.803375244140625	-6.1085941600393845	0	-51.21765	-69.98291	21.276855	85.03113	-106.426674	-8.073359
1448012868197	-0.8423309326171875	5.689971923828125	0.7283935546875	-7.445237142263299	0	-49.86725	-71.18378	23.376465	89.78204	-104.360344	-7.6095524
1448012868238	-3.0751190185546875	6.56475830078125	1.505584716796875	-7.571600223932128	0	-49.86725	-69.833374	24.276733	93.23233	-101.65377	-7.894486
1448012868279	0.0598297119140625	10.2471923828125	3.993072509765625	-6.025053411037728	0	-52.11792	-70.28351	22.32666	96.48694	-98.21434	-6.441438
1448012868321	0.2669219970703125	10.28289794921875	-1.57342529296875	-6.810536807522192	0	-53.767395	-69.2337	20.527649	97.96881	-94.247116	-3.7999969
1448012868361	-0.2389068603515625	9.02130126953125	1.200897216796875	-6.646965270165463	0	-54.21753	-70.28351	18.276978	98.41693	-92.91949	-3.4034045
1448012868401	-0.4126739501953125	7.970367431640625	0.41656494140625	-6.982727052636474	0	-55.267334	-69.98291	17.527771	98.34799	-90.82417	-2.8628798
1448012868442	-0.5626373291015625	8.527374267578125	0.3760986328125	-6.9185495206473515	0	-56.767273	-70.58411	14.976501	98.959076	-87.62632	-1.5260464
1448012868482	-0.7018890380859375	9.077239990234375	0.62127685546875	-6.807162084720341	0	-57.96814	-69.98291	13.926697	99.49628	-86.54867	-0.92215806
1448012868523	-0.7816314697265625	9.484283447265625	-0.1285400390625	-6.87844154484827	0	-59.46808	-69.98291	12.727356	99.68674	-84.69732	0.020275418
1448012868563	-1.6076202392578125	9.48309326171875	0.78076171875	-6.864452019151495	0	-59.017944	-69.833374	11.976624	99.89789	-82.837906	0.871482
1448012868603	-0.4888458251953125	10.348358154296875	1.039031982421875	-6.505305661180233	0	-60.217285	-69.08417	12.876892	101.127106	-81.09942	2.433604
1448012868644	-1.4540863037109375	10.699462890625	1.84716796875	-6.476052814376583	0	-62.017822	-68.48297	14.677429	102.272095	-81.04824	3.5591812
1448012868684	-3.1881866455078125	11.25885009765625	-0.008331298828125	-6.967175383405942	0	-62.467957	-68.03284	16.47644	102.60101	-81.59936	3.907434
1448012868725	-2.0539398193359375	13.1702880859375	1.572235107421875	-6.244496215152703	0	-62.91809	-68.03284	17.677307	102.83676	-82.35522	3.6715124
1448012868765	0.7548980712890625	12.42523193359375	2.18756103515625	-5.88643532998433	0	-59.76715	-67.134094	24.276733	102.040955	-88.252716	1.9548992
1448012868805	2.3997344970703125	12.83465576171875	-2.72314453125	-6.269476065566961	0	-57.817078	-66.233826	32.977295	102.05643	-95.42503	0.26275146
1448012868846	2.0902862548828125	11.267181396484375	0.5284423828125	-6.080219714229411	0	-50.917053	-64.88342	41.37726	105.34326	-100.460785	-2.2612653
1448012868886	-4.4616851806640625	10.71136474609375	-1.5615234375	-7.641384969586233	0	-43.867493	-67.43317	46.02661	109.832214	-102.29403	-6.388538
1448012868926	-1.5028839111328125	7.062255859375	-2.066162109375	-7.9375869345381265	0	-43.41736	-67.733765	45.12787	105.39435	-106.14305	-10.041456
1448012868966	-0.4900360107421875	6.2386474609375	-0.8331298828125	-7.5895114660476874	0	-43.566895	-68.48297	44.377136	98.75656	-110.61033	-11.638652
1448012869007	0.4537811279296875	5.266265869140625	-0.88787841796875	-7.608380588953513	0	-43.566895	-69.2337	42.5766	92.68201	-113.00631	-12.034603
1448012869047	0.3538055419921875	4.668792724609375	-3.52532958984375	-8.582970694712728	0	-45.217896	-72.683716	37.47711	87.55353	-114.114555	-12.182831
1448012869087	-0.0353851318359375	4.186767578125	-3.075439453125	-8.769323280332552	0	-45.066833	-74.33319	35.827637	84.484375	-113.21387	-12.367956
1448012869128	-1.1529693603515625	6.42431640625	-4.2037353515625	-8.773347032747576	0	-45.967102	-78.23334	29.377747	83.278564	-110.33541	-11.810055
1448012869168	0.4192657470703125	15.885101318359375	-3.81573486328125	-6.272674109131822	0	-51.516724	-77.63367	24.726868	83.93683	-105.83067	-9.233475
1448012869209	-3.6166534423828125	14.127197265625	-5.04400634765625	-7.468537238741026	0	-52.867126	-77.18353	22.927856	81.55069	-105.10144	-6.8205404
1448012869249	-3.0536956787109375	7.634735107421875	-8.677642822265625	NaN	0	-50.917053	-77.48413	26.226807	80.78229	-106.54602	-7.737573
1448012869289	2.3878326416015625	14.452117919921875	3.207550048828125	-5.329156464861721	0	-49.417114	-78.23334	25.326538	82.462524	-105.61821	-8.102493
1448012869330	0.7548980712890625	5.75543212890625	0.805755615234375	-7.101773607155223	0	-47.618103	-79.434204	25.326538	86.58197	-102.370895	-8.53168
1448012869371	-1.1946258544921875	5.232940673828125	-2.02093505859375	-8.386255055719847	0	-47.16797	-80.18341	25.177002	87.08426	-101.68878	-8.716952
1448012869411	1.1357574462890625	11.643280029296875	3.2706298828125	-5.800396390796089	0	-48.667908	-78.68347	23.977661	88.66171	-99.83784	-7.398187
1448012869452	-1.8825531005859375	12.400238037109375	0.072601318359375	-6.552327999247325	0	-49.26758	-77.934265	21.577454	92.51758	-94.98271	-4.879086
1448012869492	-0.9304046630859375	9.381927490234375	0.908111572265625	-6.74724804257273	0	-49.717712	-78.83301	20.527649	92.525085	-94.22298	-4.5689335
1448012869532	-0.3733978271484375	7.158660888671875	0.84503173828125	-7.044301174781285	0	-50.61798	-79.434204	14.826965	90.75888	-91.559235	-4.1656947
1448012869573	-0.3234100341796875	8.41668701171875	1.04022216796875	-6.784432045450185	0	-50.167847	-80.18341	13.4765625	90.29706	-90.42146	-3.892823
1448012869613	0.1681365966796875	9.033203125	1.0235595703125	-6.608960356138892	0	-52.568054	-80.33295	8.677673	89.30432	-86.770744	-2.246808
1448012869653	-0.6840362548828125	8.789215087890625	0.33087158203125	-6.902112021880781	0	-53.61786	-79.88281	5.8273315	88.93747	-84.57936	-0.98783267
1448012869694	-1.5885772705078125	9.957977294921875	0.4427490234375	-6.838073589834249	0	-56.167603	-78.68347	2.9769897	88.76288	-82.27952	0.5015745
1448012869734	-1.4766998291015625	10.467376708984375	1.112823486328125	-6.627999621498333	0	-56.767273	-78.533936	1.927185	88.69403	-80.44629	1.970936
1448012869774	-1.0613250732421875	10.957733154296875	1.54010009765625	-6.424809323640663	0	-57.06787	-77.48413	2.3773193	88.90387	-79.89464	2.6200533
1448012869815	-2.3074493408203125	11.63018798828125	-0.05950927734375	-6.7630446168802525	0	-58.117676	-77.034	3.5766602	89.6579	-79.508255	3.6563933
1448012869855	0.6692047119140625	13.1798095703125	0.67364501953125	-5.995739296463617	0	-56.767273	-77.63367	7.777405	90.274536	-81.28951	3.8319216
1448012869895	1.4344940185546875	12.98699951171875	2.226837158203125	-5.726363402880102	0	-54.966736	-80.033875	10.02655	90.27185	-82.80102	3.1984148
1448012869936	3.5768280029296875	12.37286376953125	-2.029266357421875	-6.07559136760057	0	-50.016785	-78.98407	22.477722	90.50534	-91.196785	0.42224103
1448012869976	4.1076507568359375	11.107696533203125	0.067840576171875	-5.897228200565857	0	-45.217896	-77.63367	31.777954	92.06995	-96.86285	-1.7504997
1448012870016	-1.3362579345703125	12.0562744140625	-1.58056640625	-6.7834476596039375	0	-39.967346	-77.034	38.526917	96.02942	-102.456085	-5.543995
1448012870057	-1.7516326904296875	9.04986572265625	-2.000701904296875	-7.504963380563802	0	-37.56714	-74.93286	43.026733	93.39453	-107.20373	-8.170441
1448012870097	-0.1698760986328125	6.285064697265625	-0.1951904296875	-7.373495364160162	0	-34.716797	-73.88306	45.877075	90.7814	-110.71897	-9.934558
1448012870138	0.9941253662109375	3.692840576171875	-2.03521728515625	-8.1781809331666	0	-35.46753	-72.23358	46.627808	89.04834	-112.107895	-10.337561
1448012870179	-0.6102447509765625	3.642852783203125	-3.590789794921875	NaN	0	-36.216736	-72.683716	45.72754	83.10718	-114.8112	-10.280975
1448012870219	-0.4674224853515625	2.838287353515625	-5.6319580078125	NaN	0	-37.268066	-74.183655	43.777466	81.29602	-113.898994	-9.754199
1448012870260	-1.3945770263671875	4.390289306640625	-6.8887939453125	NaN	0	-39.067078	-75.68359	41.827393	80.793335	-112.4055	-9.210375
1448012870300	-1.6564178466796875	14.8936767578125	-4.09661865234375	-6.783250820895962	0	-42.51709	-77.934265	33.7265	80.45331	-105.755875	-5.989626
1448012870340	-2.9561004638671875	7.97869873046875	-9.4691162109375	-6.4646370393039865	0	-42.66815	-78.23334	35.676575	80.52179	-105.782646	-5.7052245
1448012870381	-0.4840850830078125	12.871551513671875	-4.875	-7.065712109066833	0	-41.467285	-76.13373	38.827515	78.29993	-108.47892	-7.0090995
1448012870421	3.3709259033203125	15.38641357421875	3.58721923828125	-5.07959685680025	0	-39.21814	-76.283264	39.727783	80.35672	-106.94597	-6.8320727
1448012870461	-1.2029571533203125	4.28436279296875	-1.552001953125	-8.569909381242246	0	-35.768127	-77.33307	39.727783	84.06268	-104.54058	-7.6585016
1448012870502	-1.7147369384765625	6.473114013671875	-1.603179931640625	-8.030312539155137	0	-36.0672	-77.48413	40.47699	86.6022	-102.55652	-7.3271904
1448012870542	0.7084808349609375	11.971771240234375	4.031158447265625	-5.7186407875737135	0	-36.216736	-78.38287	38.676453	91.0715	-97.98427	-5.023938
1448012870582	-0.4352874755859375	10.48046875	-0.601043701171875	-6.733468441924071	0	-35.917664	-79.133606	36.87744	93.42505	-94.9363	-3.7074912
1448012870623	0.3359527587890625	7.9049072265625	0.939056396484375	-6.776762317576082	0	-35.917664	-80.48401	35.52704	94.60803	-92.61716	-3.0148604
1448012870663	-0.3210296630859375	7.113433837890625	0.48797607421875	-7.108382023441501	0	-36.367798	-81.08368	33.877563	94.55463	-90.45785	-2.460039
1448012870704	-0.4971771240234375	9.45452880859375	-0.25946044921875	-6.8573812499999995	0	-37.716675	-81.98395	31.777954	94.73724	-88.22437	-1.5612655
1448012870744	-1.4088592529296875	8.789215087890625	0.724822998046875	-6.959640423011276	0	-39.067078	-81.68335	30.27649	94.8237	-86.003716	-0.20625679
1448012870785	-1.4409942626953125	8.49285888671875	-0.49273681640625	-7.2455205776436395	0	-39.666748	-82.733154	29.676819	94.76349	-83.882545	0.8551152
1448012870825	-1.0232391357421875	9.58306884765625	1.024749755859375	-6.7107028008389165	0	-42.066956	-82.733154	27.427673	94.242004	-80.81044	3.0305455
1448012870865	0.0384063720703125	11.1802978515625	1.034271240234375	-6.3061749595417425	0	-43.867493	-81.53381	27.57721	94.72592	-79.615204	4.3619847
1448012870905	-1.1136932373046875	11.574249267578125	0.979522705078125	-6.424281455665128	0	-44.6167	-80.33295	29.226685	95.424255	-79.448616	5.41268
1448012870946	-2.6002349853515625	12.712066650390625	1.715057373046875	-6.367575568844277	0	-42.51709	-79.58374	33.277893	95.816986	-79.75375	5.590595
1448012870986	-1.4993133544921875	12.657318115234375	1.941192626953125	-6.1873186641965345	0	-41.166687	-77.33307	38.827515	96.974915	-83.42304	4.505335
1448012871026	2.6687164306640625	12.274078369140625	1.186614990234375	-5.790456353410766	0	-40.41748	-71.93298	46.02661	96.737335	-85.91895	3.745729
1448012871066	2.7520294189453125	12.68707275390625	-2.7755126953125	-6.2480062499999995	0	-37.56714	-66.38336	54.426575	96.57086	-95.83714	0.43132877
1448012871107	3.3090362548828125	11.274322509765625	-0.6617431640625	-6.075431871841482	0	-33.96759	-63.383484	58.776855	98.31122	-98.00202	-0.9124563
1448012871147	-2.9953765869140625	11.84918212890625	0.21185302734375	-6.795676791192452	0	-24.517822	-59.184265	65.37781	102.15857	-102.07211	-6.9547606
1448012871188	-3.0298919677734375	7.75018310546875	-1.381805419921875	-7.979447647903044	0	-27.217102	-56.333923	67.17682	96.4715	-106.38224	-10.454572
1448012871228	0.6358795166015625	5.166290283203125	1.412750244140625	-7.120539679764187	0	-30.967712	-56.033325	66.127014	90.09741	-109.52239	-11.905692
1448012871268	1.3357086181640625	4.0391845703125	-0.32611083984375	-7.559650434782121	0	-37.268066	-54.533386	64.17694	86.770386	-110.861176	-12.016993
1448012871309	0.2954864501953125	3.723785400390625	-3.267059326171875	-8.939298135356516	0	-41.467285	-56.033325	61.927795	78.364624	-113.56576	-12.059749
1448012871349	-0.6328582763671875	3.4488525390625	-3.5277099609375	NaN	0	-44.917297	-58.433533	58.62732	75.15604	-112.316025	-12.080066
1448012871390	-0.2317657470703125	9.510467529296875	-3.338470458984375	-7.369341022533266	0	-48.06671	-60.383606	54.426575	73.885895	-108.75841	-10.747452
1448012871430	-2.4490814208984375	22.06097412109375	-5.668853759765625	-6.0725621131502034	0	-53.767395	-60.083008	50.976563	73.51608	-105.073326	-7.6904364
1448012871470	-2.3026885986328125	10.37811279296875	-9.094207763671875	NaN	0	-56.767273	-58.132935	50.07782	71.25308	-105.656685	-6.387426
1448012871511	-2.4597930908203125	12.693023681640625	0.00714111328125	-6.606541921761174	0	-55.867004	-56.48346	51.727295	70.14142	-107.81685	-7.8662124
1448012871551	4.1838226318359375	12.388336181640625	4.122802734375	-5.257428476760679	0	-54.367065	-56.784058	53.527832	73.509766	-106.2092	-8.246085
1448012871592	-2.1753387451171875	6.020843505859375	-1.47344970703125	-8.266452262375152	0	-53.767395	-58.132935	54.426575	75.90494	-103.96922	-8.16698
1448012871632	-0.4971771240234375	11.76348876953125	2.498199462890625	-6.096544594969174	0	-54.367065	-55.734253	54.426575	77.72165	-101.93023	-6.8037186
1448012871673	-0.8982696533203125	11.47308349609375	5.706939697265625	-5.6285063348454365	0	-54.667664	-56.933594	53.826904	81.78134	-97.055984	-4.901761
1448012871713	0.6977691650390625	9.110565185546875	-0.771240234375	-6.800424004451679	0	-55.867004	-56.632996	53.077698	82.58829	-94.64128	-3.7668762
1448012871753	-0.2305755615234375	7.675201416015625	0.83074951171875	-6.929904783921151	0	-57.66754	-57.533264	50.527954	82.25214	-92.735245	-3.094694
1448012871793	-1.4124298095703125	7.189605712890625	1.419891357421875	-7.123864966355755	0	-59.617615	-59.3338	47.82715	80.940704	-90.71427	-2.5587015
1448012871834	-0.2305755615234375	8.9141845703125	-1.350860595703125	-7.098695198666331	0	-61.117554	-59.632874	46.627808	80.83792	-88.30704	-1.9239477
1448012871874	-1.2077178955078125	9.091522216796875	0.3760986328125	-6.9325953107029274	0	-62.16736	-61.73401	45.877075	81.51407	-85.89253	-1.2526711
1448012871914	-1.5266876220703125	8.513092041015625	0.5379638671875	-7.063541800447388	0	-65.16724	-60.83374	44.677734	81.96695	-82.882675	0.34108287
1448012871956	-1.5052642822265625	9.2855224609375	0.710540771484375	-6.892702446859994	0	-68.01758	-59.483337	43.476868	81.86383	-81.10159	2.0817482
1448012871996	0.2324066162109375	10.9041748046875	1.06402587890625	-6.313663227053102	0	-70.26672	-58.883667	44.677734	82.45654	-79.8546	3.5919273
1448012872036	-2.6287994384765625	12.502593994140625	0.47369384765625	-6.589848781251445	0	-71.16699	-57.9834	46.177673	82.97119	-79.51548	4.0909452
1448012872077	-0.5804901123046875	13.266693115234375	1.05926513671875	-6.099111882736717	0	-71.76666	-56.933594	48.727417	84.2164	-80.711815	4.145283
1448012872118	0.5704193115234375	13.37738037109375	1.05926513671875	-6.099111882736717	0	-71.017456	-56.632996	49.627686	84.22046	-82.17839	3.5558708
1448012872158	3.9315032958984375	12.819183349609375	-2.888580322265625	-6.083415029676582	0	-70.56732	-50.7843	57.12738	84.17471	-91.13778	0.51895976
1448012872198	2.8722381591796875	13.621368408203125	-1.279449462890625	-5.90606707429713	0	-66.067505	-47.483826	65.37781	86.74191	-97.3731	-1.7841134
1448012872239	-1.6552276611328125	12.6656494140625	1.091400146484375	-6.32783270404385	0	-58.866882	-45.08362	73.02704	92.25806	-100.187035	-4.2079763
1448012872280	-3.8951568603515625	7.701385498046875	-2.3184814453125	-8.586867573447844	0	-59.317017	-44.934082	73.47717	90.74536	-104.159836	-8.23492
1448012872320	-0.0770416259765625	5.08892822265625	0.70220947265625	-7.416182448747512	0	-62.467957	-44.332886	71.076965	85.771545	-108.71732	-10.5070505
1448012872360	1.4309234619140625	3.207244873046875	-0.543914794921875	-7.783173811566366	0	-71.46759	-44.18335	67.62695	77.70581	-113.63265	-10.645369
1448012872401	-0.0032501220703125	3.38458251953125	-3.94427490234375	NaN	0	-74.76807	-46.133423	61.47766	74.740326	-114.83962	-10.423954
1448012872441	0.2359771728515625	4.090362548828125	-4.9273681640625	NaN	0	-77.01721	-48.983765	57.12738	70.51886	-115.42831	-10.1137295
1448012872481	-0.6602325439453125	4.652130126953125	-7.5933837890625	NaN	0	-81.81763	-56.48346	50.376892	68.03174	-110.96107	-9.317172
1448012872521	-1.8480377197265625	15.263824462890625	-4.633392333984375	-6.843089512557837	0	-84.06677	-58.132935	46.92688	67.75348	-108.12899	-8.396092
1448012872562	-4.0082244873046875	17.55731201171875	-1.6376953125	-6.3553115142436925	0	-86.61804	-59.632874	44.82727	67.39511	-104.708725	-6.82184
1448012872602	-1.1779632568359375	7.061065673828125	-9.434600830078125	NaN	0	-86.317444	-60.083008	44.976807	66.0896	-107.109505	-8.125228
1448012872642	2.7555999755859375	13.7987060546875	3.417022705078125	-5.337670739500169	0	-87.21771	-60.83374	42.5766	63.77585	-107.958015	-8.517716
1448012872683	2.9662628173828125	4.485504150390625	0.62841796875	-6.964033389254802	0	-83.317566	-63.082886	46.32721	68.88861	-104.27559	-9.006328
1448012872723	-0.6233367919921875	6.111297607421875	-1.99951171875	-7.938860966655221	0	-84.51691	-63.684082	46.476746	70.74649	-103.35078	-8.828734
1448012872763	1.4963836669921875	11.26361083984375	5.107086181640625	-5.579653029848072	0	-83.16803	-64.28375	48.57788	75.79208	-97.10816	-6.091543
1448012872803	0.0574493408203125	9.969879150390625	-0.046417236328125	-6.647341977159382	0	-84.51691	-64.43329	49.17755	78.56949	-93.77802	-4.318904
1448012872844	0.2335968017578125	9.065338134765625	1.493682861328125	-6.521388013255223	0	-84.51691	-64.88342	48.727417	79.4216	-92.73919	-3.5712924
1448012872884	-0.9339752197265625	6.97894287109375	0.679595947265625	-7.213423646831397	0	-85.71777	-65.18402	44.976807	78.64349	-89.68073	-2.148048
1448012872925	-1.3100738525390625	9.324798583984375	0.685546875	-6.856977718004335	0	-87.516785	-65.78369	42.72766	78.647766	-87.32208	-0.9698324
1448012872965	-1.1422576904296875	9.043914794921875	-0.436798095703125	-6.969271979158638	0	-90.51666	-66.68396	39.87732	78.66446	-84.72913	0.2811966
1448012873005	-0.8720855712890625	9.45452880859375	0.710540771484375	-6.758160397713436	0	-93.21747	-67.28363	37.927246	78.65329	-82.40071	1.2946889
1448012873046	-1.3445892333984375	9.284332275390625	1.4234619140625	-6.746664550345107	0	-93.81714	-67.733765	36.12671	78.72739	-80.54521	2.5570982
1448012873086	0.0288848876953125	11.10174560546875	0.862884521484375	-6.343434538366894	0	-96.66748	-66.5329	36.27777	79.099335	-79.15513	4.003925
1448012873126	-2.0348968505859375	11.37548828125	1.6519775390625	-6.491095668872296	0	-96.81702	-66.68396	37.176514	80.078064	-78.846085	5.1086698
1448012873167	-2.6621246337890625	13.451171875	2.474395751953125	-6.164698986358351	0	-96.06781	-66.68396	38.97705	80.70682	-79.607994	5.1723666
1448012873207	0.5597076416015625	13.097686767578125	1.574615478515625	-5.903779239614595	0	-96.36688	-66.5329	41.97693	81.196686	-82.19012	4.5234623
1448012873247	3.6672821044921875	12.685882568359375	-0.658172607421875	-5.844909443503987	0	-94.86694	-66.08429	47.377014	81.21097	-87.34327	3.0329854
1448012873287	2.9472198486328125	12.46807861328125	-3.07781982421875	-6.29412528298134	0	-90.667725	-63.383484	54.727173	81.45801	-94.33546	0.7340469
1448012873328	3.1352691650390625	12.357391357421875	2.11376953125	-5.610598325344598	0	-75.06714	-65.634155	69.12689	88.17154	-99.11548	-3.8868139
1448012873368	-4.9139556884765625	10.562591552734375	-2.733856201171875	-8.099327419804927	0	-73.117065	-68.63403	68.377686	88.56433	-100.28301	-6.482535
1448012873408	-1.5552520751953125	7.76446533203125	-0.9188232421875	-7.506515215769549	0	-72.66693	-71.33331	64.32648	80.16968	-106.46385	-11.755166
1448012873449	0.8977203369140625	5.3245849609375	1.6234130859375	-7.00557904617101	0	-73.41766	-72.23358	59.22699	77.37686	-107.931816	-12.576233
1448012873489	1.9879302978515625	2.72998046875	-2.9945068359375	-8.49381520017024	0	-75.51727	-76.283264	50.227356	67.85181	-112.24268	-13.265104
1448012873529	-0.6935577392578125	3.9439697265625	-2.7279052734375	-9.083753741195828	0	-75.216675	-78.68347	47.677612	65.0986	-112.94937	-13.404578
1448012873569	-0.2698516845703125	3.20367431640625	-3.52532958984375	NaN	0	-77.767944	-81.98395	39.57672	61.381927	-111.12367	-12.682202
1448012873610	0.0574493408203125	7.132476806640625	-6.228240966796875	-8.825944514794282	0	-79.41742	-83.03375	36.427307	60.614197	-107.32036	-10.328078
1448012873650	-0.2329559326171875	11.743255615234375	-6.349639892578125	-7.534891438137571	0	-83.61664	-83.18329	32.82776	60.181396	-105.282524	-8.698553
1448012873690	-5.0543975830078125	11.793243408203125	-5.997344970703125	-8.945495561216767	0	-84.06677	-82.133484	29.82788	59.108215	-104.27875	-7.0619884
1448012873731	0.7703704833984375	14.464019775390625	6.67218017578125	-5.126154461958742	0	-78.66669	-84.68323	32.226563	58.430115	-106.2347	-9.953067
1448012873771	9.040969848632813	9.617584228515625	2.300628662109375	-5.228479999469453	0	-75.06714	-83.63342	34.327698	61.089905	-104.493675	-10.027508
1448012873812	-0.6233367919921875	7.2003173828125	-1.472259521484375	-7.547237021340763	0	-75.06714	-81.98395	34.62677	63.864075	-101.83414	-8.582798
1448012873852	0.8429718017578125	10.8184814453125	3.112335205078125	-5.962931381069845	0	-75.216675	-81.38428	35.377502	68.49118	-98.12052	-6.72472
1448012873892	-0.8363800048828125	11.37786865234375	3.35870361328125	-6.07830383945398	0	-74.46747	-80.48401	34.62677	71.22339	-95.31679	-5.414207
1448012873932	-1.1970062255859375	8.034637451171875	3.0897216796875	-6.655829791737671	0	-75.216675	-78.98407	31.626892	74.61813	-91.17809	-3.1420016
1448012873973	-0.5626373291015625	7.522857666015625	0.672454833984375	-7.043870340605429	0	-76.11694	-79.28314	28.77655	73.050934	-89.13186	-2.1581414
1448012874013	0.6192169189453125	8.45001220703125	0.241607666015625	-6.755233618853319	0	-76.71814	-78.533936	25.4776	72.1326	-86.96995	-0.90929
1448012874054	0.0776824951171875	9.23553466796875	0.19757080078125	-6.722643456229127	0	-78.51715	-78.83301	23.376465	72.280304	-84.60279	0.50677425
1448012874094	-0.9803924560546875	9.286712646484375	0.5950927734375	-6.823076418080931	0	-78.81775	-75.98419	21.72699	72.87048	-82.587326	1.6642473
1448012874134	-1.8873138427734375	9.586639404296875	0.284454345703125	-6.98104166451539	0	-78.51715	-76.4328	20.826721	73.32132	-80.67197	2.780083
1448012874177	-1.2374725341796875	10.869659423828125	1.172332763671875	-6.519577083541961	0	-80.31769	-76.13373	20.376587	73.7948	-78.89077	3.9598186
1448012874218	-0.7887725830078125	10.900604248046875	1.9661865234375	-6.331255673393416	0	-80.16815	-74.33319	21.577454	74.34946	-78.2391	5.2754254
1448012874258	-2.2467498779296875	12.581146240234375	1.267547607421875	-6.400437354187771	0	-78.21808	-73.583984	25.4776	75.54291	-79.054726	5.929465
1448012874299	-0.4531402587890625	13.245269775390625	1.875732421875	-5.976735519567753	0	-77.01721	-72.53418	27.276611	75.87775	-80.1212	5.5443754
1448012874339	2.7984466552734375	13.21075439453125	1.576995849609375	-5.613010022496946	0	-72.517395	-71.63391	35.827637	75.62433	-87.09159	2.9762423
1448012874379	2.8401031494140625	12.737060546875	-1.729339599609375	-6.08533353592091	0	-70.56732	-69.98291	39.87732	75.3266	-93.9883	0.6783885
1448012874419	2.8591461181640625	11.01129150390625	-0.46893310546875	-6.14579346091581	0	-59.317017	-67.733765	51.57776	78.37805	-97.65705	-1.9576756
1448012874460	-3.4238433837890625	11.7039794921875	-0.186859130859375	-6.961731465684387	0	-55.41687	-67.733765	53.527832	80.86197	-98.767555	-4.1390605
1448012874500	-2.3871917724609375	8.67852783203125	-1.285400390625	-7.569205160248796	0	-54.21753	-69.98291	52.7771	75.40317	-105.03681	-9.922563
1448012874540	1.7284698486328125	6.132720947265625	1.7091064453125	-6.889232675768753	0	-55.567932	-68.1839	48.57788	69.88208	-108.75967	-11.259545
1448012874581	1.3928375244140625	2.86328125	-3.52294921875	-8.950346792318964	0	-57.66754	-68.48297	45.877075	63.530853	-112.48924	-11.269651
1448012874621	0.3978424072265625	3.67498779296875	-4.050201416015625	-9.656171331922112	0	-58.117676	-68.63403	43.927002	58.211426	-114.69529	-11.001222
1448012874662	0.0538787841796875	2.631195068359375	-6.0556640625	NaN	0	-59.46808	-71.48285	38.827515	55.63022	-113.92319	-10.611646
1448012874703	-0.7768707275390625	4.1153564453125	-7.08636474609375	NaN	0	-61.117554	-72.084045	35.52704	54.560516	-110.11077	-9.283044
1448012874743	-3.5154876708984375	28.238037109375	-5.62005615234375	-5.435960082764446	0	-66.067505	-70.28351	29.377747	54.78586	-105.38506	-6.6278343
1448012874783	-4.1772308349609375	15.937469482421875	-4.428680419921875	-7.098914968919194	0	-65.467834	-70.73364	29.82788	53.877075	-105.660675	-5.9989195
1448012874824	-1.2231903076171875	11.72540283203125	0.866455078125	NaN	0	-63.067627	-71.18378	31.92749	52.97116	-107.57693	-7.6404314
1448012874864	11.551071166992188	9.794921875	-0.541534423828125	-5.245409517443492	0	-61.117554	-70.28351	35.22644	57.973083	-104.926704	-7.0780005
1448012874904	-2.6383209228515625	5.9815673828125	0.94976806640625	-7.734640896550516	0	-60.968018	-69.2337	37.77771	62.24066	-102.10839	-5.9108505
1448012874944	-0.5900115966796875	10.22100830078125	5.51531982421875	-5.9147731117224245	0	-59.916687	-69.68384	36.27777	64.41876	-99.76887	-5.448843
1448012874985	-1.8242340087890625	11.171966552734375	-0.73553466796875	-6.871945356608965	0	-60.517883	-69.833374	35.52704	67.4834	-94.96688	-3.6904778
1448012875025	1.1036224365234375	8.6475830078125	1.636505126953125	-6.43203179483818	0	-62.91809	-69.08417	32.977295	66.59378	-92.440056	-1.678597
1448012875067	-0.6126251220703125	7.32647705078125	0.62841796875	-7.096937678333158	0	-64.567566	-68.48297	30.427551	65.41055	-90.73251	-0.8363232
1448012875108	-1.1303558349609375	8.051300048828125	1.039031982421875	-6.985257022570799	0	-65.31677	-69.68384	27.57721	64.95874	-88.20644	-0.22876585
1448012875149	-0.9137420654296875	8.92608642578125	-0.396331787109375	-7.046887592294771	0	-66.3681	-69.5343	25.927734	64.8248	-85.70129	0.553382
1448012875189	-0.8066253662109375	9.1236572265625	0.2618408203125	-6.862025842711134	0	-67.567444	-69.2337	23.527527	64.11688	-83.32157	1.5164843
1448012875229	-0.9756317138671875	9.35693359375	0.484405517578125	-6.829066222280435	0	-69.818115	-68.333435	21.876526	63.708923	-80.98953	3.1287758
1448012875270	-0.1091766357421875	11.274322509765625	1.788848876953125	-6.207434159006206	0	-70.86792	-67.28363	22.776794	63.962616	-79.40937	5.004629
1448012875310	-1.7171173095703125	11.412384033203125	2.10186767578125	-6.3719043221539895	0	-72.2168	-66.5329	23.8266	64.20187	-79.03969	5.7005687
1448012875351	-2.0444183349609375	12.9036865234375	1.731719970703125	-6.25822175646681	0	-72.2168	-67.134094	26.67694	65.60901	-79.61758	6.3710923
1448012875391	1.7451324462890625	12.243133544921875	2.16375732421875	-5.787642011238524	0	-69.66705	-64.73389	34.327698	66.520905	-82.71632	5.465986
1448012875431	3.7839202880859375	12.1181640625	-2.355377197265625	-6.126014835475164	0	-67.41791	-62.03308	42.427063	66.972595	-88.686775	3.5611215
1448012875472	1.9557952880859375	13.60113525390625	0.74267578125	-5.769322907299749	0	-62.617493	-59.3338	49.476624	67.55759	-95.463684	0.6170973
1448012875512	3.0138702392578125	11.9229736328125	0.15472412109375	-5.921813262846458	0	-57.366943	-56.784058	56.52771	69.213135	-97.68067	-0.8819284
1448012875553	-3.8332672119140625	9.2950439453125	-1.91143798828125	-7.922365740382267	0	-52.267456	-55.28412	59.527588	72.12427	-102.553535	-6.8038216
1448012875593	-2.4621734619140625	7.801361083984375	-1.491302490234375	-7.84499730530468	0	-52.11792	-55.133057	58.927917	69.716675	-104.72507	-8.728281
1448012875633	1.4368743896484375	5.035369873046875	1.031890869140625	-7.067232348180344	0	-55.267334	-54.533386	53.077698	61.471985	-109.78906	-11.647914
1448012875674	2.2581024169921875	2.939453125	-3.069488525390625	-8.347810427579919	0	-58.717346	-55.734253	48.277283	54.942657	-112.745056	-11.747937
1448012875716	-0.1091766357421875	3.416717529296875	-3.6514892578125	NaN	0	-59.76715	-57.533264	44.976807	49.205048	-114.4628	-11.678979
1448012875757	-0.5840606689453125	2.97991943359375	-6.328216552734375	NaN	0	-62.16736	-59.483337	41.827393	46.204865	-111.193565	-10.987096
1448012875797	-0.2877044677734375	10.251953125	-4.426300048828125	-7.453315357548425	0	-66.667175	-59.93347	37.927246	47.157654	-105.84313	-8.335822
1448012875838	-4.6640167236328125	29.634124755859375	-3.171844482421875	-5.1377389451168405	0	-69.96765	-56.933594	35.076904	45.747284	-104.169754	-5.984839
1448012875878	-3.8915863037109375	4.4962158203125	-11.529327392578125	NaN	0	-68.167114	-55.433655	36.427307	43.690643	-107.6435	-6.635869
1448012875918	-0.5483551025390625	12.11102294921875	4.1085205078125	-5.847914819982247	0	-65.61737	-56.033325	38.827515	46.758484	-105.95932	-8.95307
1448012875958	12.900741577148438	8.912994384765625	0.760528564453125	-5.055361790189089	0	-65.31677	-52.583313	41.526794	51.44992	-102.92269	-6.9715333
1448012875999	-2.0848846435546875	6.820648193359375	-0.486785888671875	-7.745295155700445	0	-64.26697	-50.7843	42.427063	53.343384	-101.446686	-6.471964
1448012876039	0.3240509033203125	11.174346923828125	3.3944091796875	-5.947480021710138	0	-63.51776	-50.7843	43.177795	57.77005	-96.92104	-4.8686633
1448012876079	-1.4160003662109375	11.34930419921875	0.1951904296875	-6.624070461614643	0	-63.067627	-50.183105	43.62793	59.2518	-94.983986	-3.9035437
1448012876119	0.1074371337890625	7.901336669921875	0.2047119140625	-6.94068204622438	0	-65.0177	-49.73297	41.677856	60.134277	-92.030464	-2.2725866
1448012876160	-1.0637054443359375	6.765899658203125	0.72601318359375	-7.271209024733869	0	-65.91797	-49.583435	39.87732	59.35611	-90.29548	-1.5791125
1448012876200	-1.0327606201171875	9.236724853515625	0.580810546875	-6.842687926359245	0	-65.91797	-50.183105	38.827515	59.54669	-87.97801	-0.67721194
1448012876240	-1.3219757080078125	8.95703125	-0.1475830078125	-7.07027536023598	0	-66.51764	-49.4339	38.526917	59.83307	-85.7401	0.31109273
1448012876281	-1.1874847412109375	9.00225830078125	0.714111328125	-6.886174536528056	0	-68.766785	-48.53363	36.12671	59.50168	-83.64423	1.2799405
1448012876321	-1.3553009033203125	9.403350830078125	0.496307373046875	-6.883526737181449	0	-70.71686	-48.53363	35.22644	59.21527	-81.58569	2.824818
1448012876361	-0.3852996826171875	11.274322509765625	1.491302490234375	-6.288031353890787	0	-72.517395	-45.233154	36.27777	59.371155	-80.25878	4.8135448
1448012876402	-1.5897674560546875	11.29217529296875	1.779327392578125	-6.41812907206035	0	-73.26813	-44.332886	36.576843	59.867737	-79.807915	6.222279
1448012876442	-1.4457550048828125	13.89154052734375	2.374420166015625	-5.956897974066491	0	-72.81799	-41.48407	39.87732	61.20981	-81.37798	6.6138506
1448012876483	1.0345916748046875	13.245269775390625	1.391326904296875	-5.847914819982247	0	-72.96753	-40.733337	40.327454	61.338837	-82.94098	5.8110123
1448012876523	4.5658721923828125	11.5135498046875	-2.124481201171875	-6.070968755364303	0	-70.11719	-37.882996	44.82727	61.536133	-88.29874	3.9032905
1448012876564	1.9605560302734375	13.308349609375	-0.082122802734375	-5.909577696123094	0	-66.3681	-37.13379	49.327087	63.50418	-97.08847	-0.8344635
1448012876604	0.2193145751953125	11.900360107421875	-0.234466552734375	-6.359106978994328	0	-58.117676	-37.283325	55.62744	69.30261	-99.705215	-4.878942
1448012876644	-4.5854644775390625	9.355743408203125	-1.45440673828125	-7.985646350841732	0	-56.767273	-39.083862	53.97644	67.444885	-103.37615	-9.493976
1448012876685	-1.3695831298828125	7.637115478515625	-1.6376953125	-8.110869024863005	0	-57.366943	-40.434265	52.027893	65.04642	-105.518364	-10.951145
1448012876725	0.7834625244140625	5.532867431640625	1.67578125	-6.979567774139338	0	-60.517883	-44.033813	41.37726	56.872986	-110.32218	-12.589137
1448012876766	2.2759552001953125	3.445281982421875	-2.743377685546875	-8.080952441235373	0	-62.617493	-44.934082	36.576843	53.921844	-111.863304	-12.565964
1448012876806	0.2526397705078125	4.02490234375	-2.950469970703125	-8.654613826665143	0	-63.067627	-48.683167	31.92749	47.430786	-113.756714	-12.317259
1448012876846	0.0336456298828125	2.945404052734375	-5.145172119140625	NaN	0	-64.41803	-50.7843	28.17688	46.72699	-111.40155	-11.702568
1448012876887	-1.3600616455078125	14.123626708984375	-5.42486572265625	-7.09759661483779	0	-66.3681	-49.73297	24.127197	48.112396	-106.757904	-9.580081
1448012876927	-4.5604705810546875	25.523223876953125	-4.3941650390625	-5.736146922413189	0	-68.91785	-48.233032	19.776917	48.209167	-103.95292	-7.0880055
1448012876967	-4.2867279052734375	3.992767333984375	-7.994476318359375	NaN	0	-65.467834	-48.233032	21.276855	48.006073	-106.40697	-8.624739
1448012877008	0.6287384033203125	13.82012939453125	7.358917236328125	-5.136719376881279	0	-62.316895	-50.03357	21.72699	49.983612	-106.13285	-10.364493
1448012877048	9.563461303710938	9.9853515625	-7.051849365234375	-6.271495545959558	0	-62.617493	-46.133423	22.477722	56.962646	-101.97171	-7.3921294
1448012877088	-2.6823577880859375	5.62689208984375	-4.212066650390625	NaN	0	-62.017822	-46.133423	22.32666	57.740906	-101.5977	-5.7538934
1448012877129	1.8772430419921875	10.1043701171875	3.009979248046875	-5.9347022214905305	0	-60.217285	-45.233154	22.627258	62.917206	-97.949615	-4.922488
1448012877169	0.5620880126953125	11.49688720703125	2.671966552734375	-5.968509097941928	0	-58.717346	-45.233154	23.376465	67.4534	-94.16286	-3.5860317
1448012877209	-1.2612762451171875	7.6240234375	1.534149169921875	-6.996458302094948	0	-58.416748	-45.832825	21.577454	69.90668	-91.93423	-3.540068
1448012877249	-0.9661102294921875	6.287445068359375	1.3472900390625	-7.224231924390001	0	-57.366943	-46.43402	19.02771	70.03497	-90.01307	-2.9883535
1448012877290	0.3907012939453125	8.82611083984375	0.382049560546875	-6.708397021766337	0	-57.366943	-45.233154	16.777039	71.279175	-86.95887	-1.2689873
1448012877330	-1.1791534423828125	8.824920654296875	-0.562957763671875	-7.145245185578933	0	-57.817078	-44.78302	15.727234	72.45261	-84.92677	0.22064298
1448012877370	-1.0446624755859375	8.884429931640625	-0.263031005859375	-7.054012771555584	0	-58.56781	-43.58368	14.677429	72.91907	-83.95005	1.0702692
1448012877411	-1.8658905029296875	10.013916015625	1.262786865234375	-6.738895259003942	0	-58.866882	-41.033936	11.976624	73.50418	-81.789955	3.020881
1448012877451	-0.7328338623046875	11.300506591796875	1.5234375	-6.329372623268333	0	-58.866882	-39.2334	11.526489	74.637085	-80.163246	5.0974584
1448012877492	-2.2253265380859375	12.024139404296875	0.353485107421875	-6.620332909244296	0	-57.66754	-38.783264	11.677551	76.566315	-80.03523	6.790819
1448012877532	-1.4076690673828125	13.746337890625	2.124481201171875	-6.003555164027899	0	-56.018066	-37.43286	11.976624	78.10498	-82.03015	6.495458
1448012877573	3.2530975341796875	12.02294921875	1.929290771484375	-5.658668283540089	0	-53.167725	-37.73346	13.17749	78.454834	-83.97485	5.910486
1448012877613	3.4232940673828125	12.452606201171875	-2.08282470703125	-6.092696990829804	0	-50.767517	-38.33313	16.47644	79.8436	-93.76074	2.3648458
1448012877653	1.6058807373046875	14.14862060546875	-0.046417236328125	-5.843257457846304	0	-47.016907	-38.034058	19.926453	80.73309	-96.74918	0.50373805
1448012877693	-0.7780609130859375	12.565673828125	0.722442626953125	-6.269644311559418	0	-41.166687	-40.733337	22.477722	85.5954	-100.11044	-3.523331
1448012877734	-4.3319549560546875	10.741119384765625	-0.79266357421875	-7.436684209409079	0	-41.166687	-40.733337	23.8266	87.26898	-101.09852	-6.1318398
1448012877775	-1.2374725341796875	6.437408447265625	0.158294677734375	-7.491814785164655	0	-37.56714	-45.233154	18.577576	76.7753	-108.82995	-12.935772
1448012877815	1.3238067626953125	5.016326904296875	1.876922607421875	-6.940059179705605	0	-36.517334	-46.583557	13.327026	69.66855	-111.9498	-13.128042
1448012877856	2.4413909912109375	3.083465576171875	-4.43463134765625	-8.762461493992983	0	-35.768127	-47.483826	10.627747	63.086517	-114.81164	-12.968116
1448012877896	0.5228118896484375	2.597869873046875	-4.04901123046875	NaN	0	-33.666992	-50.334167	6.1279297	59.045166	-114.595146	-12.902938
1448012877936	0.2097930908203125	5.1531982421875	-4.86785888671875	-9.102943516842869	0	-34.266663	-49.1333	1.3275146	58.194	-111.07489	-12.068861
1448012877977	-1.3838653564453125	19.9114990234375	-2.83978271484375	-5.845810817002697	0	-35.16693	-48.683167	-3.3233643	60.362854	-105.37783	-9.53577
1448012878017	-9.121261596679688	11.480224609375	-4.05377197265625	NaN	0	-34.417725	-48.233032	-5.57251	58.634827	-103.816505	-7.4779115
1448012878057	-4.7044830322265625	2.8204345703125	-7.320831298828125	NaN	0	-31.266785	-49.1333	-4.672241	57.55957	-106.9415	-10.245782
1448012878098	-3.9891815185546875	8.096527099609375	-2.674346923828125	-8.609520780722276	0	-30.21698	-49.583435	-6.4727783	59.42749	-105.69246	-12.047627
1448012878138	10.209732055664063	12.116973876953125	-8.365814208984375	-6.070172331272447	0	-33.96759	-47.63336	-8.72345	65.44495	-100.544136	-7.91427
1448012878178	0.8739166259765625	6.70281982421875	2.064971923828125	-6.7014899578238065	0	-34.117126	-47.483826	-9.472656	63.994995	-100.77223	-6.1198697
1448012878219	2.9710235595703125	9.4521484375	2.529144287109375	-5.939777495128631	0	-35.317993	-45.983887	-9.922791	70.05707	-95.77508	-4.0985994
1448012878259	-0.2865142822265625	14.066497802734375	2.208984375	-5.807979250853137	0	-35.917664	-45.832825	-10.972595	73.66113	-92.13926	-3.223415
1448012878299	-4.6544952392578125	7.21221923828125	2.2232666015625	-7.62005235574755	0	-36.817932	-46.133423	-12.472534	74.6192	-91.0008	-3.5823772
1448012878339	-0.8280487060546875	6.8480224609375	0.182098388671875	-7.316204018724193	0	-36.66687	-45.832825	-13.972473	74.18353	-89.0031	-3.3066378
1448012878380	0.8191680908203125	8.389312744140625	-0.13568115234375	-6.794491156910629	0	-36.216736	-45.08362	-15.922546	73.812805	-86.18804	-1.4957559
1448012878420	-0.7578277587890625	8.72137451171875	-0.227325439453125	-7.025193644668841	0	-37.417603	-44.18335	-17.87262	73.84271	-85.27316	-0.66304344
1448012878461	-1.4564666748046875	9.22125244140625	0.085693359375	-7.004729352383204	0	-37.867737	-42.08374	-18.322754	74.247925	-83.236244	0.8737773
1448012878502	-1.6790313720703125	9.44500732421875	1.152099609375	-6.820285287595522	0	-39.367676	-39.83307	-21.02356	74.395386	-80.05057	3.796916
1448012878542	-1.2577056884765625	11.098175048828125	1.315155029296875	-6.466596348857019	0	-40.267944	-37.13379	-22.073364	74.65311	-79.330414	4.8698645
1448012878582	-1.9896697998046875	11.431427001953125	0.99261474609375	-6.576372152271269	0	-42.066956	-37.283325	-22.073364	75.18765	-78.80514	6.830869
1448012878624	0.9084320068359375	14.661590576171875	2.13995361328125	-5.962312134304204	0	-40.71808	-37.73346	-20.722961	75.71219	-80.11002	6.75047
1448012878664	3.7386932373046875	13.361907958984375	2.066162109375	-5.428613784208078	0	-40.267944	-39.382935	-19.522095	75.90256	-83.48199	5.3930435
1448012878704	4.6932220458984375	11.657562255859375	-1.336578369140625	-5.931783109795098	0	-38.017273	-43.28308	-15.17334	76.05121	-90.16321	3.24289
1448012878745	3.0864715576171875	12.524017333984375	-0.70458984375	-5.945784147378748	0	-36.517334	-46.733093	-9.622192	77.38504	-95.984955	0.51971626
1448012878786	2.3176116943359375	10.9327392578125	-1.253265380859375	-6.342919071956964	0	-34.417725	-48.983765	-3.9230347	79.76471	-97.87871	-1.0736866
1448012878826	-4.6104583740234375	8.384552001953125	-1.455596923828125	-8.283938939848541	0	-31.867981	-50.933838	-1.0726929	81.749054	-102.89885	-7.2713075
1448012878866	-0.7233123779296875	7.094390869140625	1.355621337890625	-7.026905802952137	0	-28.266907	-52.73285	-0.32348633	76.54498	-107.36532	-9.989335
1448012878906	1.9450836181640625	4.778289794921875	0.643890380859375	-7.092329601910429	0	-25.567627	-53.334045	-0.92315674	66.82312	-112.65376	-10.615661
1448012878947	1.8034515380859375	2.819244384765625	-5.4796142578125	NaN	0	-24.667358	-54.533386	-1.8234253	63.66571	-114.281265	-10.551944
1448012878987	0.4204559326171875	3.616668701171875	-4.77740478515625	NaN	0	-23.017883	-55.734253	-3.6224365	58.973755	-115.49297	-10.589468
1448012879027	-0.6507110595703125	2.759735107421875	-6.2889404296875	NaN	0	-21.968079	-55.28412	-6.4727783	57.06546	-113.4544	-10.425739
1448012879068	-0.6340484619140625	9.996063232421875	-5.126129150390625	-7.748473274038455	0	-23.16742	-54.833984	-11.572266	56.772186	-108.715836	-8.878168
1448012879108	-5.4554901123046875	30.510101318359375	-2.1661376953125	-5.022410046544746	0	-24.816895	-53.633118	-15.322876	56.651978	-104.29275	-5.987708
1448012879148	-6.2267303466796875	1.65167236328125	-12.94683837890625	NaN	0	-20.767212	-54.682922	-12.472534	52.90213	-108.80916	-7.9966283
1448012879189	-0.7292633056640625	12.40618896484375	5.099945068359375	-5.710642147734053	0	-21.817017	-55.433655	-13.673401	56.410065	-106.404335	-9.128808
1448012879229	15.621505737304688	12.40380859375	0.03094482421875	-4.5097840549936565	0	-25.267029	-53.182983	-14.123535	60.813965	-103.31878	-6.0988603
1448012879269	-1.8682708740234375	6.19818115234375	0.609375	-7.584149712969868	0	-26.017761	-53.633118	-14.273071	62.76883	-101.85994	-5.895978
1448012879309	2.1033782958984375	10.886322021484375	6.063995361328125	-5.441546085245803	0	-28.868103	-51.23291	-16.522217	65.23218	-99.41488	-5.3233237
1448012879350	-3.1869964599609375	10.919647216796875	-2.938568115234375	-7.5127330549651665	0	-30.667114	-49.282837	-17.723083	69.07565	-93.84755	-3.4607837
1448012879390	-1.6088104248046875	8.234588623046875	3.536041259765625	-6.618839115302433	0	-32.167053	-49.282837	-19.673157	69.45105	-92.5827	-3.15499
1448012879430	-0.8351898193359375	6.36956787109375	0.5950927734375	-7.330823187523698	0	-31.716919	-47.63336	-22.372437	66.35339	-89.57909	-1.6096126
1448012879470	0.7096710205078125	8.82611083984375	0.422515869140625	-6.650922936437857	0	-32.46765	-47.33429	-24.623108	65.86359	-88.4121	-0.98631096
1448012879511	-0.7316436767578125	8.951080322265625	-0.722442626953125	-7.068536082091089	0	-32.318115	-44.78302	-26.42212	65.15372	-84.98756	1.0257459
1448012879551	-0.6197662353515625	8.9808349609375	-0.386810302734375	-6.982727052636474	0	-32.617188	-45.08362	-27.47345	64.89099	-83.87124	1.6184886
1448012879591	-1.5838165283203125	10.251953125	0.827178955078125	-6.725153010068514	0	-35.16693	-41.033936	-29.722595	64.556946	-80.80494	4.152876
1448012879632	-0.3864898681640625	10.966064453125	0.729583740234375	-6.4436907943872	0	-35.46753	-39.083862	-30.023193	64.53003	-80.0731	5.0769434
1448012879672	-2.2527008056640625	11.838470458984375	0.651031494140625	-6.607099859749817	0	-36.96747	-37.882996	-29.722595	65.03461	-79.41447	6.8896093
1448012879712	-2.1705780029296875	13.202423095703125	2.583892822265625	-6.116649063329017	0	-38.017273	-39.683533	-29.122925	65.678406	-80.8158	6.693975
1448012879753	3.9993438720703125	14.011749267578125	1.685302734375	-5.6410591771680245	0	-36.66687	-43.28308	-27.023315	65.81558	-84.47672	4.9760814
1448012879793	4.0624237060546875	13.63446044921875	-1.54248046875	-5.7873458793299175	0	-35.017395	-48.233032	-22.372437	65.95001	-91.21804	2.4801826
1448012879833	3.2304840087890625	13.6654052734375	-0.755767822265625	-5.7891229982038555	0	-34.56726	-52.583313	-15.77301	67.775085	-97.42506	-0.4842645
1448012879874	-1.4064788818359375	12.18243408203125	-0.78076171875	-6.645082408487134	0	-31.867981	-56.784058	-8.572388	72.29907	-102.71054	-5.896319
1448012879914	-3.5809478759765625	9.92584228515625	-3.157562255859375	-8.021289899955665	0	-29.766846	-58.883667	-7.823181	70.21942	-104.94181	-7.8629265
1448012879954	-0.9149322509765625	5.729248046875	1.751953125	-7.244126796062359	0	-25.267029	-61.73401	-7.373047	61.87506	-110.21091	-11.293986
1448012879994	1.5844573974609375	4.19866943359375	1.24493408203125	-7.155550978747104	0	-21.968079	-63.082886	-7.522583	58.636658	-111.65395	-11.494051
1448012880035	2.1914520263671875	3.158447265625	-4.238250732421875	-8.752252543242829	0	-20.46814	-64.43329	-8.122253	49.4274	-115.30894	-11.047197
1448012880075	-0.0556182861328125	3.081085205078125	-4.207305908203125	NaN	0	-17.617798	-65.33356	-9.922791	46.090332	-114.564354	-11.095813
1448012880115	-0.0568084716796875	3.547637939453125	-6.780487060546875	NaN	0	-17.767334	-64.88342	-13.223267	45.84137	-110.85816	-10.585582
1448012880157	-1.4314727783203125	12.53472900390625	-4.657196044921875	-7.267690749817145	0	-21.517944	-63.383484	-21.62323	46.36136	-105.27445	-7.9706116
1448012880197	-7.3121795654296875	23.20831298828125	-2.6231689453125	-6.1633920073733	0	-21.06781	-63.83362	-21.772766	45.73752	-104.047325	-6.8623466
1448012880238	-4.7973175048828125	4.54144287109375	-11.57574462890625	NaN	0	-18.667603	-66.833496	-18.322754	43.378418	-106.83595	-8.082257
1448012880278	11.220199584960938	10.451904296875	1.258026123046875	-5.018058467875337	0	-21.217346	-66.833496	-18.623352	47.67383	-105.57184	-9.404837
1448012880318	3.4994659423828125	5.6102294921875	-2.310150146484375	-7.199006226406049	0	-21.968079	-66.08429	-18.322754	51.46039	-104.21114	-8.681047
1448012880359	-1.9860992431640625	7.746612548828125	0.758148193359375	-7.253433045211606	0	-24.217224	-66.08429	-19.372559	54.786102	-100.91924	-7.87954
1448012880399	-1.0470428466796875	10.564971923828125	0.989044189453125	-6.565153830988155	0	-28.717041	-63.53302	-22.372437	59.211212	-96.03896	-5.8816648
1448012880440	-0.8101959228515625	9.553314208984375	2.167327880859375	-7.08532277570893	0	-29.917908	-63.983154	-22.972107	61.54077	-93.27183	-4.3349204
1448012880480	-0.4709930419921875	7.7811279296875	-0.070220947265625	-7.115891182526491	0	-31.266785	-63.082886	-25.822449	62.17514	-90.66427	-3.5492399
1448012880520	-1.1220245361328125	7.239593505859375	0.23565673828125	-7.2860394060035345	0	-31.567383	-63.082886	-26.272583	61.533142	-88.772575	-2.7441316
1448012880561	-0.5614471435546875	9.296234130859375	0.74029541015625	-6.7284378214491465	0	-32.917786	-60.533142	-28.822327	61.80481	-86.71467	-1.4191818
1448012880601	-1.7516326904296875	9.158172607421875	-1.0997314453125	-7.295264006613275	0	-32.917786	-60.383606	-29.57306	61.830627	-84.730415	-0.117998436
1448012880643	-1.9932403564453125	9.643768310546875	-0.213043212890625	-7.0395656883522495	0	-34.56726	-59.483337	-31.672668	61.811554	-82.9145	0.85321265
1448012880683	-1.5005035400390625	9.765167236328125	1.5281982421875	-6.677245124234618	0	-35.768127	-58.283997	-33.92334	61.510742	-80.89679	2.191777
1448012880723	0.1502838134765625	10.707794189453125	1.5186767578125	-6.288538778141831	0	-38.16681	-57.23419	-34.52301	61.134247	-79.59749	4.0356097
1448012880763	-2.0229949951171875	11.670654296875	0.034515380859375	-6.694980697672482	0	-38.91754	-57.6828	-34.072876	61.634155	-79.43347	5.8350716
1448012880804	-1.9158782958984375	12.369293212890625	1.31634521484375	-6.375891599124761	0	-39.367676	-58.283997	-32.873535	62.18045	-79.95874	5.9263334
1448012880844	1.5880279541015625	12.371673583984375	1.903106689453125	-5.8237858909134275	0	-38.768005	-62.03308	-28.822327	63.63629	-85.34496	4.563245
1448012880885	3.3780670166015625	12.28717041015625	-1.700775146484375	-6.06969455829112	0	-34.117126	-70.28351	-17.123413	64.03961	-92.384605	2.1348906
1448012880925	2.0902862548828125	14.049835205078125	-0.36419677734375	-5.834708173348979	0	-32.318115	-72.83325	-13.372803	64.22272	-95.563576	0.5342617
1448012880965	0.8096466064453125	12.000335693359375	0.314208984375	-6.183867428558976	0	-26.467896	-75.83313	-3.7734985	70.045654	-100.75492	-4.7303514
1448012881006	-2.8192291259765625	7.296722412109375	-1.96142578125	-8.22038831649656	0	-20.167542	-77.18353	0.12664795	66.80127	-104.65042	-9.007677
1448012881046	-1.1648712158203125	6.875396728515625	-0.36181640625	-7.493872366566847	0	-17.767334	-76.7334	1.1764526	61.24164	-108.73136	-11.212367
1448012881087	1.3797454833984375	5.54595947265625	1.57342529296875	-6.891273217455128	0	-14.61792	-78.0838	3.1265259	55.04193	-111.81633	-11.752869
1448012881128	0.5775604248046875	3.345306396484375	-5.492706298828125	NaN	0	-10.86731	-78.0838	4.4769287	48.49759	-114.729	-11.503801
1448012881168	-0.0568084716796875	3.729736328125	-3.712188720703125	NaN	0	-9.516907	-78.23334	4.1778564	46.036896	-115.37852	-11.463456
1448012881209	-0.4340972900390625	3.23223876953125	-8.302734375	NaN	0	-9.516907	-79.133606	-1.0726929	43.24005	-112.551056	-10.857675
1448012881249	-1.2517547607421875	6.671875	-6.8887939453125	NaN	0	-11.46698	-80.633545	-4.823303	43.61441	-106.87974	-8.763635
1448012881290	-5.8910980224609375	19.1593017578125	-2.176849365234375	-6.47623149634801	0	-13.568115	-79.73328	-7.823181	43.999664	-103.16767	-6.3794384
1448012881330	-5.0686798095703125	5.697113037109375	-13.733551025390625	NaN	0	-11.46698	-80.33295	-5.2734375	41.67816	-106.56436	-8.029973
1448012881370	11.099990844726563	9.4569091796875	1.8233642578125	-5.075821598697888	0	-10.417175	-80.33295	-4.373169	44.808594	-105.533714	-9.022198
1448012881411	7.5639495849609375	3.14892578125	-4.331085205078125	-7.280379471001628	0	-10.86731	-79.434204	-4.072571	48.616577	-103.51405	-7.8978114
1448012881451	-1.0375213623046875	12.885833740234375	5.768829345703125	-5.609322105503042	0	-13.267517	-79.133606	-5.57251	52.844666	-100.212456	-7.4927382
1448012881491	-0.7173614501953125	12.095550537109375	6.247283935546875	-5.608329758286046	0	-16.267395	-79.434204	-10.072327	56.667786	-95.39352	-5.5430837
1448012881532	0.4585418701171875	8.663055419921875	2.538665771484375	-6.391887265153415	0	-18.667603	-77.034	-12.773132	58.09616	-92.009026	-3.2613285
1448012881572	0.5037689208984375	8.1905517578125	-0.198760986328125	-6.891885658527955	0	-19.866943	-76.882935	-13.372803	57.965668	-90.86399	-2.6549773
1448012881613	-0.9827728271484375	7.12890625	1.14495849609375	-7.106397800359145	0	-19.567871	-76.882935	-15.77301	57.12097	-88.93064	-1.7104908
1448012881653	-0.9792022705078125	9.633056640625	0.466552734375	-6.7865988237598	0	-21.517944	-74.63379	-19.073486	57.845856	-85.62854	-0.11860633
1448012881693	-1.4624176025390625	9.115325927734375	-0.409423828125	-7.115227766905827	0	-21.968079	-74.783325	-19.673157	58.05667	-84.56251	0.34679645
1448012881734	-1.5695343017578125	9.067718505859375	0.403472900390625	-6.995611365285837	0	-24.217224	-72.683716	-23.422241	57.98352	-81.64643	2.2323837
1448012881774	-0.9803924560546875	9.743743896484375	0.238037109375	-6.806368583958116	0	-24.667358	-71.48285	-24.472046	57.865356	-79.71733	4.029509
1448012881814	-1.3350677490234375	10.962493896484375	1.532958984375	-6.349626130419708	0	-26.766968	-71.33331	-25.222778	57.98764	-79.01182	5.7411294
1448012881855	-1.8337554931640625	11.950347900390625	0.939056396484375	-6.481596420496523	0	-27.067566	-70.13397	-24.32251	58.165527	-79.02126	6.222745
1448012881896	2.2842864990234375	14.128387451171875	1.512725830078125	-5.5727601612397475	0	-25.41809	-71.63391	-19.223022	59.403503	-81.756454	5.841992
1448012881936	2.1831207275390625	13.670166015625	2.10662841796875	-5.56868598941262	0	-23.617554	-73.43292	-16.223145	59.470856	-86.77542	4.9444404
1448012881978	2.3711700439453125	13.038177490234375	-0.217803955078125	-5.908966926056076	0	-18.817139	-75.53406	-3.7734985	59.6792	-93.7495	1.4479835
1448012882018	2.7306060791015625	11.75634765625	0.070220947265625	-5.991213429465215	0	-17.018127	-74.783325	-0.47302246	62.882538	-98.33839	-1.2078905
1448012882059	-2.1336822509765625	12.395477294921875	1.04022216796875	-6.44475270841847	0	-10.86731	-74.183655	7.0266724	66.22284	-101.43132	-5.104902
1448012882099	-1.6373748779296875	7.7049560546875	-0.75457763671875	-7.501604655093841	0	-7.116699	-72.683716	10.926819	62.187714	-106.04136	-8.360425
1448012882140	-0.4531402587890625	6.732574462890625	1.191375732421875	-7.073321760134282	0	-6.0668945	-72.084045	12.57782	57.262543	-109.777374	-10.063372
1448012882180	2.1057586669921875	2.405059814453125	-2.257781982421875	-8.305588174922184	0	-3.3676147	-69.68384	15.727234	47.69278	-114.78578	-10.425666
1448012882220	1.1738433837890625	2.695465087890625	-4.440582275390625	NaN	0	-2.4673462	-68.933105	16.177368	44.966766	-115.75725	-10.402467
1448012882260	-0.8958892822265625	2.519317626953125	-5.069000244140625	NaN	0	-1.5670776	-68.933105	13.6276245	40.892212	-113.992195	-10.08429
1448012882301	-1.0125274658203125	5.8958740234375	-5.8890380859375	NaN	0	-2.166748	-71.63391	8.677673	40.74527	-109.27418	-8.467469
1448012882342	-0.6245269775390625	11.569488525390625	-4.999969482421875	-7.36836455906537	0	-3.666687	-72.38312	6.1279297	41.21472	-106.74113	-6.9658837
1448012882382	-6.4397735595703125	8.689239501953125	-6.8316650390625	NaN	0	-3.9672852	-71.18378	7.3272705	39.16919	-106.8567	-6.0663376
1448012882422	-4.2974395751953125	14.904388427734375	1.886444091796875	-6.272000596342502	0	-2.7679443	-69.68384	8.076477	39.15448	-107.51218	-7.3423924
1448012882462	11.743881225585938	6.0101318359375	-2.288726806640625	-5.874007184199868	0	-1.8676758	-68.63403	4.927063	45.468628	-103.65778	-7.143397
1448012882503	-1.3207855224609375	2.724029541015625	-0.37847900390625	-8.79429322107948	0	-3.0670166	-68.63403	5.076599	46.57541	-102.86044	-6.548916
1448012882543	0.9560394287109375	13.061981201171875	8.922821044921875	-5.016940129528539	0	-5.467224	-67.28363	-0.47302246	50.818756	-97.90639	-4.7820654
1448012882583	-3.4619293212890625	12.02532958984375	-4.873809814453125	-7.885769332267531	0	-7.267761	-67.28363	-0.92315674	53.25995	-94.74287	-3.398709
1448012882624	0.4383087158203125	8.5047607421875	3.6038818359375	-6.26443240177073	0	-6.817627	-66.233826	-1.9729614	53.273895	-92.725655	-3.1291056
1448012882664	-0.4733734130859375	7.446685791015625	0.6236572265625	-7.050339924373574	0	-8.317566	-65.48309	-4.522705	51.588776	-90.945885	-1.756954
1448012882705	-0.6245269775390625	7.896575927734375	0.272552490234375	-7.059856211360497	0	-8.7677	-64.582825	-6.323242	50.992096	-88.65782	-0.56957376
1448012882746	-0.7328338623046875	9.22125244140625	0.59033203125	-6.79350348472679	0	-9.217834	-63.233948	-7.522583	50.807312	-87.46813	0.084603876
1448012882786	-0.6090545654296875	8.910614013671875	0.091644287109375	-6.909497355054267	0	-10.717773	-61.582947	-10.972595	50.286377	-83.89163	1.7075303
1448012882826	-1.8742218017578125	9.8092041015625	1.096160888671875	-6.801413951104431	0	-11.618042	-58.73413	-12.322998	50.02426	-81.58596	3.3503408
1448012882867	-1.1006011962890625	10.66375732421875	0.98309326171875	-6.559101056251374	0	-13.417053	-57.9834	-12.922668	49.963593	-79.97043	5.337489
1448012882907	-2.0551300048828125	11.709930419921875	1.215179443359375	-6.5096347501985345	0	-13.8671875	-54.533386	-12.773132	50.360138	-79.24924	6.697436
1448012882947	-1.9134979248046875	13.945098876953125	2.579132080078125	-5.984201141661618	0	-15.068054	-52.433777	-11.273193	51.252716	-79.86738	7.2772737
1448012882987	2.5770721435546875	13.75823974609375	1.998321533203125	-5.524820764349058	0	-12.966919	-50.63324	-8.572388	51.948395	-82.33432	6.2424417
1448012883028	4.7420196533203125	12.076507568359375	-1.865020751953125	-5.93962360109005	0	-11.46698	-49.282837	-4.373169	51.75528	-87.50856	3.8835826
1448012883068	3.0305328369140625	12.88702392578125	-0.01190185546875	-5.818410572800413	0	-10.86731	-48.083496	0.12664795	51.93164	-94.39486	1.0293
1448012883108	1.5047149658203125	11.07080078125	-0.142822265625	-6.280597521066482	0	-9.217834	-46.43402	2.2277832	55.994293	-98.77437	-1.8036814
1448012883149	-4.7461395263671875	9.51641845703125	-1.377044677734375	-7.964526642902165	0	-7.7178955	-44.332886	4.4769287	58.406555	-101.8367	-5.9992685
1448012883189	-2.5371551513671875	6.9765625	-0.353485107421875	-7.785233570771757	0	-6.668091	-42.98401	4.777527	53.77713	-106.4549	-9.899211
1448012883230	0.8667755126953125	5.39361572265625	1.888824462890625	-6.9519168830425	0	-7.4172974	-42.382813	4.4769287	47.99475	-110.06098	-11.3210945
1448012883270	2.2414398193359375	3.3203125	-2.79693603515625	-8.143826328035084	0	-6.817627	-42.533875	3.5766602	41.276367	-113.31285	-11.232442
1448012883310	0.2800140380859375	3.254852294921875	-4.312042236328125	NaN	0	-5.9173584	-40.733337	2.0767212	33.83075	-115.10083	-11.157849
1448012883351	-0.7756805419921875	2.012298583984375	-5.7938232421875	NaN	0	-7.116699	-39.98413	-1.222229	32.824554	-114.02857	-11.160776
1448012883391	-0.8244781494140625	7.78350830078125	-5.1749267578125	-8.470896667087079	0	-9.217834	-39.83307	-6.6223145	32.55356	-109.62249	-10.111071
1448012883432	-6.9158477783203125	16.955078125	-4.58935546875	-7.472103292371203	0	-10.717773	-37.583923	-9.622192	32.60791	-103.53652	-6.220642
1448012883472	-5.9327545166015625	5.894683837890625	-14.178680419921875	NaN	0	-9.667969	-37.73346	-8.72345	31.415771	-105.09171	-6.771405
1448012883512	9.877670288085938	10.1329345703125	3.80621337890625	-4.9263522360740035	0	-10.717773	-37.583923	-11.723328	33.90857	-105.27661	-9.470733
1448012883553	8.386367797851563	2.969207763671875	-4.150177001953125	-7.122312653315537	0	-12.06665	-36.383057	-13.072205	36.63208	-103.46427	-8.382503
1448012883594	0.0669708251953125	6.770660400390625	-0.33087158203125	-7.766187222702765	0	-14.317322	-36.23352	-15.022278	38.77899	-101.51769	-7.5357113
1448012883634	-0.8970794677734375	12.390716552734375	2.52557373046875	-6.062376340090019	0	-17.018127	-34.13391	-17.573547	43.495544	-96.11871	-5.2991776
1448012883675	-2.8906402587890625	9.941314697265625	-4.85833740234375	-8.325945740514413	0	-19.117737	-32.78351	-18.47229	45.136475	-93.88041	-3.85285
1448012883715	-0.0449066162109375	7.60260009765625	1.3758544921875	-6.817695857403116	0	-19.567871	-32.633972	-20.573425	44.65619	-91.46472	-2.8696296
1448012883756	-0.1258392333984375	6.6956787109375	0.4141845703125	-7.163869584718947	0	-20.46814	-32.48291	-21.772766	43.343567	-89.29783	-1.9871638
1448012883796	0.6537322998046875	8.470245361328125	-0.02618408203125	-6.790345107073747	0	-21.66748	-30.084229	-24.32251	42.937866	-86.7706	-0.5957535
1448012883836	-1.3088836669921875	8.909423828125	-0.865264892578125	-7.211359111651735	0	-22.866821	-27.684021	-26.722717	43.160126	-84.41538	0.94542986
1448012883877	-0.7518768310546875	9.741363525390625	-0.4427490234375	-6.883119596286228	0	-24.067688	-24.383545	-27.322388	43.05954	-82.03248	2.4003594
1448012883918	-1.4160003662109375	9.862762451171875	0.8997802734375	-6.7493884668544055	0	-24.36676	-23.632813	-28.973389	43.255615	-79.73773	4.0980277
1448012883959	-0.8685150146484375	11.155303955078125	1.988800048828125	-6.302946337142066	0	-27.667236	-20.333862	-31.072998	44.22351	-78.511505	6.3436074
1448012883999	-2.8965911865234375	12.58709716796875	-0.13330078125	-6.715127017715453	0	-29.167175	-18.682861	-31.672668	45.395203	-79.1758	6.825799
1448012884039	0.9500885009765625	13.483306884765625	1.826934814453125	-5.77419002577921	0	-30.517578	-19.58313	-31.973267	46.720917	-81.65369	6.1653605
1448012884079	3.4637603759765625	12.566864013671875	2.064971923828125	-5.552708098049909	0	-31.716919	-23.783875	-30.7724	47.289764	-86.79674	4.543688
1448012884123	1.7082366943359375	13.952239990234375	0.1856689453125	-5.825878252642768	0	-31.417847	-29.483032	-28.523254	47.0766	-93.70874	1.8315521
1448012884164	4.1076507568359375	12.178863525390625	-2.136383056640625	-6.044933982716443	0	-32.617188	-33.53424	-26.123047	49.184296	-98.02609	-1.2367598
1448012884204	-2.0694122314453125	11.017242431640625	-1.05926513671875	-6.997941056041769	0	-34.417725	-39.683533	-21.772766	51.613617	-99.45881	-3.2181373
1448012884244	-1.3029327392578125	6.437408447265625	0.496307373046875	-7.433672887538538	0	-30.81665	-45.533752	-22.073364	49.550507	-104.83833	-9.720652
1448012884285	-0.0508575439453125	6.02203369140625	0.8759765625	-7.189893537677384	0	-27.217102	-49.4339	-21.62323	44.553345	-108.74066	-11.501036
1448012884325	1.9367523193359375	4.62237548828125	0.6903076171875	-7.114122437455664	0	-23.76709	-53.033447	-22.372437	38.112885	-112.41839	-11.666488
1448012884365	0.2942962646484375	3.404815673828125	-5.842620849609375	NaN	0	-21.06781	-55.58319	-23.72284	32.04538	-115.280785	-11.224617
1448012884406	-0.3757781982421875	1.8111572265625	-6.328216552734375	NaN	0	-19.866943	-55.734253	-26.573181	28.885468	-114.96625	-10.907674
1448012884446	-0.3876800537109375	3.01324462890625	-7.8980712890625	NaN	0	-21.968079	-54.833984	-28.67279	28.397583	-110.87403	-9.969296
1448012884486	-3.9915618896484375	30.79217529296875	-2.4232177734375	-4.8692529765588874	0	-25.41809	-51.983643	-38.272095	29.0997	-104.97498	-7.5265055
1448012884527	-3.7570953369140625	6.423126220703125	-11.8590087890625	NaN	0	-23.76709	-55.433655	-37.823486	28.089264	-104.74548	-7.016452
1448012884567	0.7667999267578125	13.92486572265625	6.040191650390625	-5.253375065977446	0	-21.968079	-59.783936	-37.22229	27.278564	-106.82061	-9.047074
1448012884607	10.463241577148438	4.66046142578125	-3.8704833984375	-6.452018117783948	0	-27.5177	-61.132813	-36.473083	31.797638	-104.34738	-8.290979
1448012884648	-2.3443450927734375	6.965850830078125	1.92333984375	-7.248310418843346	0	-29.766846	-61.73401	-36.473083	36.678833	-100.751175	-7.309971
1448012884688	-0.4126739501953125	11.838470458984375	6.31512451171875	-5.5946027278608295	0	-35.16693	-59.93347	-38.423157	39.27823	-98.27203	-6.582641
1448012884728	-1.0815582275390625	9.729461669921875	-2.443450927734375	-7.315726154409171	0	-38.768005	-58.283997	-39.172363	42.845398	-93.98061	-4.340843
1448012884769	0.0598297119140625	8.836822509765625	2.933807373046875	-6.367056484542379	0	-40.41748	-58.73413	-40.522766	43.78827	-92.08782	-2.6812592
1448012884809	-0.6221466064453125	7.49310302734375	0.00238037109375	-7.184895060081667	0	-40.41748	-58.433533	-44.422913	42.70456	-89.015045	-1.4748468
1448012884850	-1.2112884521484375	8.34527587890625	0.5189208984375	-7.040210959175244	0	-41.01715	-58.283997	-45.32318	42.599945	-87.84051	-1.2287223
1448012884890	-0.8470916748046875	9.032012939453125	-0.422515869140625	-7.020490634682871	0	-42.817688	-58.283997	-47.122192	42.730072	-85.66094	-0.4165035
1448012884930	-1.2612762451171875	8.74993896484375	0.01904296875	-7.066580713849524	0	-44.317627	-55.88379	-51.1734	42.7247	-82.58434	1.3049078
1448012884971	-1.4421844482421875	9.118896484375	0.08807373046875	-7.020063481918537	0	-44.76776	-53.933716	-51.77307	42.46936	-81.535736	2.1415255
1448012885011	-0.5221710205078125	11.300506591796875	1.529388427734375	-6.298363406065173	0	-48.516846	-54.38385	-53.422546	42.782043	-78.84763	5.0278277
1448012885051	-1.5326385498046875	11.43499755859375	1.63531494140625	-6.4098848293983615	0	-49.118042	-54.234314	-53.572083	42.941742	-78.55035	5.7733226
1448012885092	-0.5816802978515625	13.611846923828125	1.667449951171875	-5.972852932554309	0	-50.016785	-60.533142	-50.723267	44.56134	-79.39415	6.554962
1448012885132	2.2807159423828125	12.6370849609375	1.00213623046875	-5.816620409351814	0	-49.717712	-64.73389	-48.92273	45.143585	-82.77923	5.6396403
1448012885172	2.9960174560546875	13.822509765625	-1.431793212890625	-5.884007233883555	0	-40.867615	-81.53381	-34.072876	45.42383	-89.03104	3.2731383
1448012885213	2.0914764404296875	14.694915771484375	-1.058074951171875	-5.84070574261716	0	-39.666748	-85.884094	-30.473328	45.2106	-95.35981	0.06349345
1448012885253	-0.2781829833984375	11.6754150390625	0.874786376953125	-6.303455921801504	0	-32.167053	-92.333984	-17.87262	49.190887	-99.153625	-2.8566601
1448012885293	-2.8251800537109375	9.824676513671875	-0.2047119140625	-7.199919247414743	0	-26.91803	-94.88373	-15.472412	49.253204	-102.504486	-7.1911197
1448012885334	-0.2996063232421875	6.554046630859375	1.115203857421875	-7.09189114543768	0	-14.767456	-98.03314	-10.972595	44.84842	-107.01969	-10.177292
1448012885374	1.8427276611328125	4.568817138671875	1.31396484375	-7.02711989689534	0	-8.467102	-99.08295	-6.022644	36.21161	-112.24412	-11.470853
1448012885415	1.8177337646484375	2.816864013671875	-1.1949462890625	-7.951970255480137	0	-5.6167603	-99.53308	-4.373169	32.75467	-114.09742	-11.334074
1448012885455	-0.2639007568359375	2.6585693359375	-4.492950439453125	NaN	0	-1.4175415	-99.983215	-5.873108	26.400787	-115.48779	-10.7460785
1448012885496	-0.1341705322265625	2.443145751953125	-8.810943603515625	NaN	0	-1.4175415	-102.53296	-12.922668	25.831177	-111.7968	-9.908102
