timestamp	accel_x	accel_y	accel_z	accel_mag	temperature	mag_x	mag_y	mag_z	azimuth	pitch	roll
1448009440203	-2.1574859619140625	4.268890380859375	8.810943603515625	-6.5017024187637915	0	-30.123901	-6.756592	-47.07184	70.26184	-29.894617	-12.257564
1448009440244	-2.0825042724609375	4.51287841796875	10.16180419921875	-6.258054052047999	0	-31.02417	-6.907654	-45.422363	72.8616	-28.970438	-11.690984
1448009440284	-1.3136444091796875	4.230804443359375	8.899017333984375	-6.369133292064625	0	-31.924438	-8.256531	-44.221497	75.203	-28.906107	-10.506506
1448009440324	-0.9780120849609375	4.17486572265625	8.230133056640625	-6.4262173745660185	0	-32.974243	-9.307861	-43.022156	76.18646	-29.271149	-9.899803
1448009440365	0.2240753173828125	4.166534423828125	8.553863525390625	-6.208757137033141	0	-33.87451	-11.257935	-42.271423	78.1828	-30.110477	-8.917281
1448009440405	-1.1839141845703125	2.8109130859375	8.437225341796875	-6.634183847733078	0	-32.974243	-12.606812	-41.671753	80.849945	-30.13248	-9.051478
1448009440446	-1.3017425537109375	4.087982177734375	8.559814453125	-6.438209571746701	0	-33.12378	-12.457275	-41.671753	84.926575	-27.559845	-10.358857
1448009440486	-0.4864654541015625	4.573577880859375	9.548858642578125	-6.145143287325512	0	-32.824707	-13.50708	-41.37268	86.86224	-25.908363	-10.263742
1448009440526	-1.0815582275390625	4.049896240234375	8.342010498046875	-6.44351384131447	0	-32.073975	-13.50708	-41.37268	88.854614	-23.425663	-12.224188
1448009440566	-2.5978546142578125	4.10345458984375	8.426513671875	-6.655074393652981	0	-31.02417	-13.206482	-42.271423	90.532196	-21.177402	-14.211707
1448009440607	-2.3979034423828125	2.74664306640625	7.554107666015625	-6.995399670952092	0	-30.725098	-11.106873	-43.322754	92.078125	-18.275425	-16.138327
1448009440647	-3.5476226806640625	2.510986328125	8.665740966796875	-7.044516617070039	0	-29.524231	-9.606934	-43.922424	92.94983	-14.799461	-17.6224
1448009440687	-3.1120147705078125	2.581207275390625	9.10968017578125	-6.877628733383671	0	-30.123901	-8.557129	-44.67163	93.0195	-13.063439	-18.003017
1448009440728	-2.2229461669921875	2.081329345703125	12.291046142578125	-6.320996849713229	0	-31.173706	-4.6569824	-43.17169	92.352325	-8.687945	-16.070896
1448009440768	-2.6371307373046875	2.634765625	10.98065185546875	-6.493250223238714	0	-31.173706	-3.3065796	-42.422485	91.41083	-7.5693326	-15.134009
1448009440809	-3.6011810302734375	1.560028076171875	10.570037841796875	-6.886174536528056	0	-30.123901	-2.256775	-43.47229	90.86743	-7.1105633	-17.257574
1448009440849	-4.0189361572265625	1.310089111328125	11.319854736328125	-6.872148144809717	0	-29.524231	-3.1570435	-43.022156	90.67529	-7.3300333	-17.74179
1448009440889	-0.6685638427734375	3.188201904296875	10.37841796875	-6.215213633946712	0	-31.324768	-5.407715	-41.822815	90.51764	-10.510286	-16.325302
1448009440930	-1.2946014404296875	2.187255859375	9.567901611328125	-6.572321714157324	0	-31.774902	-7.05719	-41.072083	92.629425	-12.449065	-15.275492
1448009440970	-1.7599639892578125	0.960174560546875	10.512908935546875	-6.690012201327237	0	-33.87451	-9.307861	-38.82141	96.16907	-13.946689	-13.391242
1448009441010	-0.8685150146484375	1.088714599609375	9.645263671875	-6.6656664991382035	0	-33.87451	-10.957336	-37.171936	97.989075	-14.925433	-12.325429
1448009441050	-0.2841339111328125	1.87542724609375	9.301300048828125	-6.5062070864533315	0	-34.77478	-12.457275	-35.671997	100.569244	-16.744669	-10.411837
1448009441091	0.2538299560546875	2.097991943359375	9.9737548828125	-6.264768422574054	0	-35.523987	-13.357544	-32.972717	102.6369	-17.7955	-8.064711
1448009441131	0.9643707275390625	1.87066650390625	8.39080810546875	-6.456100733187057	0	-38.674927	-15.457153	-28.022766	106.43454	-20.194223	-3.6171324
1448009441171	2.1747894287109375	2.59429931640625	9.746429443359375	-5.996676353983381	0	-39.12506	-16.807556	-26.672363	109.22333	-20.642607	-0.76839197
1448009441211	0.4799652099609375	1.3541259765625	10.312957763671875	-6.321338323999859	0	-38.674927	-16.957092	-25.622559	112.94208	-20.631634	0.1868914
1448009441252	1.0619659423828125	3.040618896484375	8.201568603515625	-6.298872324939859	0	-36.424255	-21.307373	-24.421692	116.71222	-21.228374	0.2987905
1448009441292	1.6403961181640625	2.707366943359375	8.839508056640625	-6.175171752304052	0	-35.073853	-21.907043	-24.421692	120.435425	-21.630573	-0.98482424
1448009441332	1.1214752197265625	3.845184326171875	6.331787109375	-6.4452837912398895	0	-34.17511	-26.40686	-23.072815	124.90936	-21.861118	-2.087368
1448009441373	0.2205047607421875	3.07513427734375	8.494354248046875	-6.37294403497776	0	-32.974243	-28.657532	-23.222351	129.77173	-21.772533	-2.0456648
1448009441413	-0.3293609619140625	2.777587890625	10.00946044921875	-6.27705507495234	0	-30.574036	-30.15747	-22.021484	136.66919	-19.810944	-1.9807113
1448009441454	-0.8006744384765625	1.9539794921875	10.348663330078125	-6.41514479849887	0	-29.524231	-32.107544	-22.172546	138.42722	-19.35726	-2.2616343
1448009441494	-1.5338287353515625	1.286285400390625	10.493865966796875	-6.605612241223666	0	-28.775024	-32.55768	-22.772217	141.21875	-17.852772	-3.425355
1448009441535	0.6822967529296875	2.187255859375	11.7352294921875	-5.984979649351313	0	-27.723694	-34.057617	-22.172546	144.0033	-17.20769	-3.3006985
1448009441575	-0.1579742431640625	1.945648193359375	10.717620849609375	-6.2703173755757735	0	-26.524353	-34.657288	-20.672607	147.54568	-17.569214	-2.975061
1448009441616	-2.0170440673828125	2.671661376953125	8.826416015625	-6.727471336693558	0	-23.07434	-38.1073	-19.47174	153.91174	-19.227173	-3.8501809
1448009441656	-0.6792755126953125	2.94183349609375	10.540283203125	-6.2284941901442545	0	-20.375061	-40.057373	-18.571472	157.7378	-19.985386	-4.310728
1448009441697	-2.2074737548828125	2.29913330078125	9.160858154296875	-6.76480485564933	0	-17.974854	-40.95764	-18.122864	161.33838	-20.462238	-5.677553
1448009441737	-2.8168487548828125	3.345306396484375	9.0692138671875	-6.708589104475411	0	-16.02478	-42.607117	-17.071533	164.52094	-20.841665	-6.115139
1448009441778	-1.0982208251953125	2.98468017578125	8.034942626953125	-6.656774294101487	0	-15.274048	-42.45758	-17.372131	166.68268	-20.395851	-6.1597486
1448009441818	-0.9089813232421875	2.35626220703125	10.12371826171875	-6.404982863179953	0	-14.674377	-42.907715	-17.071533	168.74188	-19.907612	-4.669021
1448009441858	-0.3353118896484375	2.606201171875	10.110626220703125	-6.287862228734615	0	-14.224243	-43.206787	-16.021729	170.40723	-20.395765	-2.1836529
1448009441898	-0.4329071044921875	3.36553955078125	7.5029296875	-6.576187931271141	0	-12.724304	-43.507385	-14.672852	172.29675	-21.492128	-1.2815785
1448009441939	0.1800384521484375	3.335784912109375	9.653594970703125	-6.177630678696644	0	-12.124634	-43.95752	-12.872314	174.64636	-23.204578	0.06841269
1448009441979	0.4061737060546875	3.907073974609375	8.061126708984375	-6.288877101639693	0	-10.624695	-44.55719	-11.82251	177.03003	-24.530645	1.2666312
1448009442020	1.6296844482421875	4.17962646484375	8.79071044921875	-5.985602569707133	0	-8.824158	-45.45746	-10.922241	179.56598	-25.631899	2.2698936
1448009442060	1.2964324951171875	4.099884033203125	9.20013427734375	-5.98606982662562	0	-6.274414	-45.606995	-11.972046	182.93153	-25.086428	2.8561697
1448009442101	2.8769989013671875	3.547637939453125	8.79547119140625	-5.974871386823035	0	-5.5252075	-44.706726	-12.571716	184.51189	-24.272297	1.8143783
1448009442141	-2.0003814697265625	4.095123291015625	9.8975830078125	-6.343606377554015	0	2.8762817	-44.706726	-14.372253	191.89117	-20.261726	-7.6580157
1448009442181	-2.9858551025390625	2.747833251953125	9.120391845703125	-6.8262694822357055	0	3.9260864	-44.706726	-14.372253	193.28284	-19.966055	-9.402924
1448009442222	-2.5157318115234375	3.162017822265625	10.1451416015625	-6.521569161133385	0	5.8761597	-45.45746	-14.52179	195.6644	-19.547382	-11.632078
1448009442262	-2.1229705810546875	3.414337158203125	10.77593994140625	-6.142218933758006	0	9.025574	-44.25659	-13.171387	197.60612	-19.33834	-13.490843
1448009442302	-4.3533782958984375	3.92730712890625	7.6505126953125	-7.118767875718367	0	11.575317	-43.806458	-12.872314	201.18279	-20.073305	-16.445314
1448009442343	-3.1227264404296875	3.3441162109375	8.5836181640625	-6.839276638016963	0	12.92572	-42.30652	-12.42218	202.16461	-20.043097	-17.106733
1448009442384	-2.8287506103515625	3.35601806640625	10.391510009765625	-6.50224265464216	0	14.726257	-42.30652	-12.121582	203.56436	-19.67718	-18.513468
1448009442424	-3.2155609130859375	4.333160400390625	6.644805908203125	-7.020490634682871	0	16.075134	-42.007446	-10.472107	205.09009	-20.36202	-21.315025
1448009442465	-3.6559295654296875	3.085845947265625	8.712158203125	-6.95316792879856	0	17.726135	-41.256714	-11.222839	207.41045	-19.947918	-21.725628
1448009442505	-3.6226043701171875	3.16558837890625	8.299163818359375	-7.006216485702639	0	19.075012	-40.507507	-11.222839	209.68115	-19.310795	-21.796734
1448009442546	-3.7582855224609375	3.1536865234375	8.208709716796875	-7.049044793340768	0	19.676208	-39.907837	-11.521912	210.81108	-19.00976	-21.725985
1448009442586	-4.4093170166015625	2.697845458984375	8.56219482421875	-7.1892113650048906	0	21.775818	-37.657166	-10.922241	214.21736	-18.330242	-21.181648
1448009442626	-3.6107025146484375	3.216766357421875	7.78857421875	-7.087291620738199	0	22.525024	-37.957764	-10.621643	214.89987	-18.560085	-21.556793
1448009442667	-4.6080780029296875	3.190582275390625	8.203948974609375	-7.20151780416235	0	23.875427	-35.85663	-10.021973	216.72563	-19.486862	-22.734715
1448009442708	-5.6066436767578125	2.583587646484375	8.249176025390625	-7.520529136024609	0	23.875427	-34.957886	-8.822632	217.5079	-20.394873	-23.619736
1448009442748	-4.0034637451171875	3.600006103515625	7.92901611328125	-7.063324864021165	0	24.176025	-35.85663	-8.522034	218.44044	-21.520325	-23.553205
1448009442790	-4.5652313232421875	3.47503662109375	8.86212158203125	-7.018782416318669	0	24.475098	-35.557556	-7.9223633	219.69969	-22.487127	-22.896263
1448009442830	-3.0417938232421875	3.45599365234375	8.165863037109375	-6.877425565759024	0	25.22583	-34.50775	-7.621765	221.1683	-23.046719	-23.09022
1448009442870	-4.1867523193359375	3.0394287109375	6.884033203125	-7.411457082609356	0	25.076294	-33.007813	-7.472229	222.93292	-23.44624	-23.64141
1448009442911	-5.3352813720703125	1.355316162109375	6.637664794921875	-8.176354746990215	0	27.175903	-31.05774	-7.171631	224.69983	-23.284683	-24.405203
1448009442951	-5.6256866455078125	2.457427978515625	5.616485595703125	-8.241918905108475	0	28.974915	-31.05774	-6.7214966	225.9371	-22.850992	-24.971575
1448009442992	-5.2483978271484375	3.178680419921875	8.312255859375	-7.30809275523395	0	28.675842	-30.607605	-7.472229	226.05933	-21.497038	-25.693462
1448009443032	-2.1860504150390625	4.102264404296875	8.8692626953125	-6.522475050402266	0	26.875305	-30.307007	-5.671692	224.82738	-22.64072	-27.584217
1448009443073	-6.4207305908203125	5.6387939453125	5.768829345703125	-7.573464827155482	0	27.775574	-30.007935	-2.671814	223.84601	-25.761074	-30.084942
1448009443113	-4.3295745849609375	5.156768798828125	7.95281982421875	-6.84349115318287	0	27.024841	-30.456543	-0.27160645	220.98918	-28.56691	-32.454964
1448009443154	-8.286941528320313	8.194122314453125	6.123504638671875	-7.35085460912482	0	27.024841	-30.456543	2.4276733	217.06874	-32.790913	-34.312973
1448009443194	-3.7916107177734375	7.061065673828125	6.88641357421875	-6.6197726544612685	0	24.475098	-31.207275	4.3777466	212.69218	-36.318085	-34.843193
1448009443234	-3.3214874267578125	7.487152099609375	5.973541259765625	-6.622388020150481	0	22.676086	-32.107544	6.32782	207.97736	-40.563484	-34.21844
1448009443275	-2.5895233154296875	8.239349365234375	5.931884765625	-6.403408730701477	0	21.626282	-32.707214	9.0286255	203.659	-46.11992	-32.53101
1448009443315	-3.7725677490234375	7.430023193359375	5.1654052734375	-6.836269931173735	0	21.176147	-33.906555	9.927368	201.7635	-50.539402	-29.585884
1448009443357	-2.2824554443359375	6.59808349609375	7.09112548828125	-6.429211431884234	0	21.025085	-33.15735	10.528564	202.20232	-52.141926	-27.607256
1448009443397	-4.5771331787109375	6.963470458984375	9.04779052734375	-6.328345934700364	0	21.626282	-32.85675	10.977173	204.74971	-56.482494	-21.986193
1448009443437	-4.4866790771484375	7.42645263671875	8.701446533203125	-6.394676775076344	0	22.375488	-32.406616	10.977173	205.39452	-58.717056	-19.325651
1448009443478	-5.3662261962890625	7.318145751953125	8.7645263671875	-6.533001685781903	0	22.525024	-33.906555	9.327698	206.9684	-59.207836	-16.317259
1448009443518	-6.1350860595703125	7.63116455078125	7.48388671875	-6.809940992044483	0	23.425293	-34.207153	8.578491	207.52974	-58.764004	-15.7961645
1448009443559	-6.6004486083984375	7.572845458984375	4.602447509765625	-7.445489168134718	0	24.024963	-34.806824	7.6782227	208.60155	-57.667973	-15.763397
1448009443599	-5.9339447021484375	5.977996826171875	4.62744140625	-7.6452361874331665	0	25.675964	-34.207153	6.1782837	210.39099	-55.967667	-16.455776
1448009443640	-5.7708892822265625	6.739715576171875	4.34417724609375	-7.501604655093841	0	25.975037	-33.15735	5.7281494	211.99477	-55.156086	-17.444288
1448009443680	-5.0924835205078125	6.544525146484375	4.595306396484375	-7.347464374935587	0	27.024841	-32.707214	6.1782837	213.04445	-54.74331	-19.894035
1448009443720	-5.0936737060546875	6.947998046875	3.67767333984375	-7.454580084977156	0	27.626038	-31.507874	6.1782837	213.18323	-54.54615	-21.025562
1448009443760	-4.0891571044921875	5.76495361328125	4.01568603515625	-7.4209171744874975	0	28.375244	-30.607605	6.32782	214.57019	-53.888027	-23.306332
1448009443801	-4.2581634521484375	7.51690673828125	4.53460693359375	-7.014942746731511	0	29.875183	-27.307129	7.2280884	216.97246	-54.769684	-26.179153
1448009443841	-3.8915863037109375	6.972991943359375	5.302276611328125	-6.911141098378952	0	29.57611	-27.157593	7.3776245	217.54114	-55.239826	-26.695383
1448009443882	-4.0689239501953125	7.328857421875	5.230865478515625	-6.892702446859994	0	29.275513	-25.80719	7.977295	217.58014	-56.444527	-27.449947
1448009443922	-5.2376861572265625	9.279571533203125	4.370361328125	-6.906212663091089	0	29.275513	-25.357056	9.327698	216.85185	-58.407333	-27.882303
1448009443962	-4.5783233642578125	8.067962646484375	3.307525634765625	-7.199462696942835	0	29.425049	-25.20752	10.977173	215.80716	-59.757	-28.910929
1448009444003	-5.2602996826171875	9.134368896484375	3.562225341796875	-7.079642986098962	0	28.526306	-25.657654	11.128235	214.83382	-60.61013	-29.344572
1448009444043	-4.9258575439453125	7.93585205078125	3.595550537109375	-7.236474508132859	0	29.425049	-24.757385	11.277771	214.78029	-60.57836	-29.740217
1448009444084	-4.2415008544921875	7.576416015625	3.4658203125	-7.19877802110021	0	29.275513	-25.657654	10.678101	215.13356	-60.27014	-30.11292
1448009444124	-4.1070098876953125	7.55975341796875	3.30633544921875	-7.20677712536177	0	30.175781	-24.307251	11.128235	215.67969	-60.50082	-30.104578
1448009444165	-4.2807769775390625	7.018218994140625	3.562225341796875	-7.296686185065623	0	29.57611	-24.307251	11.128235	216.56674	-60.67007	-29.765413
1448009444206	-4.3783721923828125	7.660919189453125	3.29205322265625	-7.242501675105542	0	30.474854	-24.456787	10.528564	217.76051	-61.40611	-29.330702
1448009444249	-4.3188629150390625	6.949188232421875	4.623870849609375	-7.113238500499387	0	31.976318	-23.857117	9.927368	219.9441	-61.65011	-28.68907
1448009444290	-4.4604949951171875	7.509765625	5.238006591796875	-6.927836859052192	0	31.976318	-22.207642	9.0286255	221.91591	-62.202938	-27.836435
1448009444332	-5.1103363037109375	7.320526123046875	4.4703369140625	-7.221928505709393	0	32.125854	-23.406982	9.628296	222.64885	-64.15476	-27.213327
1448009444373	-4.0165557861328125	5.4102783203125	4.275146484375	-7.42566131566672	0	31.225586	-22.506714	10.528564	221.19989	-66.39864	-26.897406
1448009444413	-3.8082733154296875	9.60687255859375	1.42822265625	-7.118325107171131	0	27.92511	-22.956848	15.777588	216.34674	-72.225006	-25.216156
1448009444453	-7.6858978271484375	10.933929443359375	-0.803375244140625	-7.946843441197796	0	27.175903	-23.10791	17.877197	213.33473	-75.587906	-24.509188
1448009444494	-4.2557830810546875	7.744232177734375	1.976898193359375	-7.468791776462606	0	27.175903	-19.95697	16.827393	213.38518	-79.40759	-25.561493
1448009444534	0.0848236083984375	5.099639892578125	1.760284423828125	-7.171311035805619	0	30.175781	-18.307495	16.078186	217.96487	-80.56204	-26.673428
1448009444574	-3.0406036376953125	8.68328857421875	-0.248748779296875	-7.484115089989482	0	31.976318	-15.156555	15.327454	220.20462	-81.84363	-27.082188
1448009444618	-4.5949859619140625	11.61114501953125	3.469390869140625	-6.568460113157893	0	33.77533	-14.407349	11.877441	228.03986	-84.07338	-25.637894
1448009444658	-4.5533294677734375	10.852996826171875	4.359649658203125	-6.54173905095461	0	34.825134	-14.556885	11.128235	230.0224	-83.53366	-25.233618
1448009444702	-3.5392913818359375	8.782073974609375	1.386566162109375	-7.231847826511682	0	34.075928	-12.90741	10.827637	232.45401	-83.61045	-26.539824
1448009444742	-3.8677825927734375	8.05010986328125	0.8759765625	-7.557532674861019	0	34.825134	-12.757874	10.827637	232.62207	-83.18804	-26.794806
1448009444782	-4.2450714111328125	8.11199951171875	0.472503662109375	-7.723469720181833	0	34.976196	-13.206482	10.827637	232.70465	-82.5753	-27.10585
1448009444823	-4.6902008056640625	8.060821533203125	0.70697021484375	-7.787295431000362	0	34.825134	-13.357544	10.678101	232.72769	-82.446434	-27.06473
1448009444863	-4.9139556884765625	8.627349853515625	1.488922119140625	-7.525741327442734	0	34.6756	-13.656616	10.827637	233.0825	-82.199776	-27.0396
1448009444904	-4.6235504150390625	8.998687744140625	1.517486572265625	-7.379127260427588	0	34.825134	-13.807678	10.678101	233.2474	-82.21579	-27.029156
1448009444944	-4.7616119384765625	8.82611083984375	1.2568359375	-7.499798136192189	0	34.825134	-12.90741	10.827637	233.40143	-82.23243	-27.17423
1448009444984	-4.4378814697265625	8.623779296875	1.515106201171875	-7.418922461403065	0	35.27527	-12.90741	10.07843	233.95653	-81.94676	-27.5617
1448009445025	-4.7806549072265625	8.701141357421875	1.010467529296875	-7.586024853896588	0	35.27527	-13.056946	10.977173	234.04202	-81.945755	-27.594975
1448009445065	-5.4447784423828125	8.072723388671875	-0.22613525390625	-8.2568226958744	0	35.424805	-12.156677	9.477234	235.44785	-82.09202	-28.030254
1448009445105	-5.8196868896484375	7.5478515625	-0.962860107421875	-8.931783124631396	0	35.87494	-11.706543	9.0286255	237.12215	-81.70243	-28.213251
1448009445146	-3.4893035888671875	8.1239013671875	1.9376220703125	-7.2429658902579686	0	38.575745	-11.557007	2.2781372	248.02008	-78.656654	-27.645603
1448009445186	-3.8808746337890625	7.747802734375	3.0421142578125	-7.178094272709599	0	39.775085	-9.907532	-2.972412	257.2052	-76.65481	-26.825003
1448009445227	-3.3452911376953125	8.5618896484375	3.109954833984375	-6.921023221481264	0	40.82489	-10.057068	-5.3726196	261.39404	-76.40225	-26.310839
1448009445267	-1.8777923583984375	8.056060791015625	1.62579345703125	-7.01302489099569	0	41.12549	-10.957336	-11.82251	271.49966	-76.79628	-24.074703
1448009445307	-3.9975128173828125	7.86920166015625	0.046417236328125	-7.827179357715606	0	39.775085	-10.8078	-14.822388	276.58386	-77.863464	-21.76375
1448009445348	0.4585418701171875	9.785400390625	4.445343017578125	-5.973939660455114	0	37.825012	-15.757751	-19.921875	282.9864	-78.161255	-16.934488
1448009445388	-4.3295745849609375	9.907989501953125	0.960479736328125	-7.249473751000879	0	35.87494	-18.156433	-22.62268	287.60608	-79.57658	-13.000064
1448009445428	-2.1301116943359375	9.83062744140625	1.76385498046875	-6.730178259155766	0	33.77533	-21.606445	-26.222229	292.65717	-80.75832	-9.979291
1448009445469	-0.5102691650390625	11.488555908203125	2.617218017578125	-6.119391738897544	0	30.775452	-22.05658	-29.672241	298.15985	-80.9126	-7.174028
1448009445509	-1.6576080322265625	9.884185791015625	1.191375732421875	-6.737731561762391	0	29.875183	-21.45691	-31.77185	302.96762	-79.96557	-6.4854293
1448009445549	-1.0910797119140625	9.7235107421875	1.524627685546875	-6.619585924753341	0	28.225708	-21.45691	-34.622192	306.88425	-78.60377	-5.633256
1448009445590	-1.5873870849609375	9.179595947265625	1.419891357421875	-6.80458397410564	0	27.175903	-21.45691	-37.0224	311.25134	-77.56597	-4.959129
1448009445630	0.1336212158203125	9.622344970703125	2.721954345703125	-6.274189982430329	0	23.725891	-21.307373	-39.572144	316.34943	-77.32475	-4.3377852
1448009445670	-0.0330047607421875	9.62115478515625	1.56390380859375	-6.467130905516894	0	21.025085	-22.05658	-41.37268	321.8902	-77.68205	-3.6495578
1448009445711	-0.3781585693359375	9.417633056640625	2.560089111328125	-6.400786793343943	0	18.475342	-21.757507	-42.721558	328.17847	-78.71066	-3.3165486
1448009445751	-1.0065765380859375	9.48785400390625	1.6614990234375	-6.621827403839041	0	16.674805	-21.157837	-43.922424	329.6603	-78.60957	-3.1470585
1448009445792	0.1717071533203125	9.665191650390625	2.48748779296875	-6.295989426797712	0	16.375732	-21.307373	-44.67163	332.19193	-78.32629	-2.5965397
1448009445833	-0.0032501220703125	9.677093505859375	1.58294677734375	-6.451485968982155	0	15.625	-21.157837	-44.522095	333.01465	-77.93988	-2.6041393
1448009445873	-0.7375946044921875	9.691375732421875	2.16851806640625	-6.471588876429954	0	16.825867	-21.606445	-44.67163	332.78638	-77.32975	-2.555289
1448009445914	-1.3660125732421875	9.270050048828125	2.007843017578125	-6.658286087258123	0	17.124939	-20.707703	-44.822693	332.14523	-77.1363	-3.2218776
1448009445954	-0.6185760498046875	9.315277099609375	3.15399169921875	-6.364116485293874	0	17.425537	-20.106506	-44.221497	331.6449	-76.73674	-3.5286937
1448009445995	-1.6338043212890625	9.346221923828125	2.047119140625	-6.682574272967	0	18.17627	-20.857239	-43.322754	330.6694	-77.24904	-4.3675222
1448009446035	-0.4412384033203125	9.186737060546875	3.183746337890625	-6.352726088706017	0	19.075012	-20.257568	-43.47229	330.1612	-77.60423	-4.757261
1448009446075	-1.7456817626953125	9.461669921875	1.342529296875	-6.796862892534517	0	18.925476	-22.05658	-42.57202	329.62625	-78.81985	-5.1481447
1448009446116	-0.8363800048828125	9.75921630859375	1.52105712890625	-6.574898678309335	0	19.226074	-21.45691	-43.47229	330.10757	-79.52584	-4.9608073
1448009446156	-0.1163177490234375	10.03057861328125	2.07568359375	-6.343950081511586	0	18.475342	-21.757507	-43.322754	331.25784	-79.513	-4.582738
1448009446196	-0.0080108642578125	10.124603271484375	1.679351806640625	-6.372077585767245	0	18.17627	-21.307373	-43.922424	331.81396	-78.87112	-4.4243073
1448009446237	0.0657806396484375	9.48785400390625	1.819793701171875	-6.434148614920215	0	17.875671	-20.707703	-43.922424	331.91122	-77.495094	-4.257651
1448009446278	-1.2017669677734375	8.974884033203125	2.631500244140625	-6.580981096662175	0	18.475342	-19.657898	-44.67163	331.292	-75.7455	-4.4891415
1448009446321	-1.0541839599609375	9.27838134765625	2.253021240234375	-6.569746801609673	0	18.475342	-18.907166	-44.522095	331.2484	-75.27064	-4.476787
1448009446361	-0.7602081298828125	9.575927734375	2.838592529296875	-6.392758742151436	0	17.875671	-18.307495	-44.822693	331.1473	-74.21324	-4.6221814
1448009446409	-0.7387847900390625	9.827056884765625	3.1278076171875	-6.311449114571151	0	18.475342	-17.407227	-45.121765	330.51956	-72.25066	-5.0123134
1448009446449	-1.0684661865234375	9.3140869140625	3.60626220703125	-6.3639436223505665	0	19.676208	-15.907288	-45.422363	329.91425	-70.70706	-5.4345803
1448009446489	-0.7994842529296875	8.7713623046875	3.40631103515625	-6.433442860625366	0	19.676208	-15.757751	-44.822693	329.30325	-69.364426	-5.6553054
1448009446530	-1.3969573974609375	8.95941162109375	3.35394287109375	-6.473016686212727	0	20.425415	-14.707947	-45.121765	329.03027	-69.08108	-5.8275332
1448009446570	-0.4936065673828125	8.743988037109375	4.390594482421875	-6.2511849817287946	0	21.025085	-14.407349	-44.822693	328.5091	-67.84776	-6.338987
1448009446610	0.3109588623046875	9.59259033203125	4.940460205078125	-5.95380758417819	0	21.775818	-12.307739	-44.07196	327.41034	-67.0627	-6.989983
1448009446651	0.1490936279296875	9.184356689453125	5.83905029296875	-5.911410580940695	0	25.375366	-10.8078	-42.271423	323.37296	-65.238045	-9.059313
1448009446691	-1.3184051513671875	9.1427001953125	4.61553955078125	-6.279585030549691	0	30.775452	-8.256531	-37.0224	315.0559	-62.746624	-12.658253
1448009446731	-3.8332672119140625	8.565460205078125	3.41583251953125	-6.952125352591949	0	35.424805	-7.05719	-30.122375	297.97134	-61.1902	-18.879206
1448009446771	-2.9406280517578125	8.260772705078125	2.95166015625	-6.930525451319053	0	38.874817	-7.8079224	-22.62268	287.0612	-61.98521	-21.470234
1448009446812	-1.8206634521484375	8.2000732421875	3.50152587890625	-6.66320443645008	0	39.476013	-10.957336	-16.17279	277.16257	-62.82598	-22.676828
1448009446852	-2.5954742431640625	8.04058837890625	4.857147216796875	-6.596886406462554	0	39.32495	-12.90741	-10.322571	267.80008	-63.050003	-22.674381
1448009446893	-3.6214141845703125	8.179840087890625	4.798828125	-6.747637099224589	0	39.02588	-17.707825	-5.822754	263.77576	-62.86887	-22.39546
1448009446935	-6.4659576416015625	7.501434326171875	5.67718505859375	-7.215719504268083	0	37.976074	-18.457031	-2.5222778	253.45389	-62.04837	-22.761461
1448009446976	-7.0824737548828125	6.454071044921875	3.97760009765625	-7.976518748335114	0	37.22534	-18.75763	0.62713623	248.3368	-61.434444	-25.177734
1448009447018	-4.6806793212890625	4.78424072265625	1.872161865234375	-8.400995764590345	0	36.325073	-19.506836	2.8778076	244.92534	-60.721317	-27.893097
1448009447058	-2.4728851318359375	5.02227783203125	0.622467041015625	-8.02562842773644	0	35.27527	-19.657898	7.2280884	239.03346	-63.832767	-30.344566
1448009447099	-3.1322479248046875	7.779937744140625	0.941436767578125	-7.442466630895359	0	32.57599	-19.3573	10.977173	235.74066	-66.347435	-30.723051
1448009447139	-4.2736358642578125	9.18792724609375	1.746002197265625	-7.225845540718458	0	31.225586	-20.257568	13.227844	228.59616	-71.811745	-30.56933
1448009447180	-4.1308135986328125	9.522369384765625	2.6136474609375	-6.977253211946207	0	30.474854	-21.907043	14.578247	225.66393	-73.47732	-29.7074
1448009447220	-2.7478179931640625	9.022491455078125	3.795501708984375	-6.6332460690779484	0	28.076172	-21.757507	16.677856	221.90837	-75.36678	-28.66198
1448009447261	-4.0534515380859375	9.13079833984375	2.4803466796875	-7.057474051367359	0	25.22583	-22.506714	18.478394	216.66013	-77.6876	-27.10582
1448009447301	-3.9546661376953125	8.201263427734375	1.236602783203125	-7.464976615840586	0	22.975159	-25.20752	19.677734	212.02216	-78.8519	-25.51136
1448009447341	-3.4964447021484375	8.25244140625	2.100677490234375	-7.188074805480012	0	21.176147	-24.906921	20.72754	208.32188	-80.51802	-24.851007
1448009447381	-4.8425445556640625	6.368377685546875	1.200897216796875	-8.15531857435515	0	18.77594	-25.20752	22.528076	204.78557	-82.81436	-22.442541
1448009447422	-5.2186431884765625	10.42095947265625	2.076873779296875	-7.108602582752058	0	16.674805	-25.056458	24.177551	202.63084	-84.94914	-20.90632
1448009447462	-4.7401885986328125	10.44000244140625	-1.726959228515625	-7.81339789929425	0	16.226196	-23.257446	25.67749	200.72446	-87.38297	-20.649088
1448009447502	-3.6226043701171875	8.882049560546875	-2.619598388671875	-8.181839463256873	0	16.674805	-22.357178	26.127625	200.5359	-89.51199	-20.319424
1448009447543	-4.7306671142578125	11.281463623046875	0.110687255859375	-7.225614962335419	0	15.02533	-23.10791	26.727295	197.1806	-89.36863	-22.772411
1448009447583	-0.8923187255859375	9.594970703125	4.014495849609375	-6.240488977170166	0	14.575195	-23.556519	26.127625	195.37325	-88.3771	-24.721764
1448009447623	-3.0727386474609375	7.94775390625	-1.84478759765625	-8.065845088723627	0	15.325928	-23.10791	26.428223	193.34563	-87.67952	-30.155586
1448009447663	-10.762527465820313	5.432891845703125	-3.469390869140625	NaN	0	15.475464	-22.357178	26.878357	192.97864	-87.891754	-31.110477
1448009447704	-3.8832550048828125	5.8673095703125	0.11663818359375	-8.357223323968736	0	14.125061	-23.70758	26.127625	192.53477	-87.1237	-29.05324
1448009447744	-9.524734497070313	8.57379150390625	1.93048095703125	-8.816883897338641	0	13.075256	-24.757385	25.227356	191.3793	-85.67225	-26.494947
1448009447785	-6.0351104736328125	8.101287841796875	1.831695556640625	-7.832296850834531	0	12.625122	-25.056458	25.227356	190.64037	-85.18154	-26.309492
1448009447825	-5.8470611572265625	10.150787353515625	3.990692138671875	-6.926596816848818	0	10.826111	-25.956726	25.67749	188.57797	-85.10848	-24.09128
1448009447866	-0.5638275146484375	10.767303466796875	-1.18304443359375	-6.803196677341738	0	9.776306	-26.40686	25.828552	187.43822	-85.86857	-22.566563
1448009447906	-3.3583831787109375	10.947021484375	-3.399169921875	-7.7597809108304014	0	9.475708	-27.00653	25.227356	187.20645	-85.85017	-21.812456
1448009447947	-1.3457794189453125	7.546661376953125	0.462982177734375	-7.2251538673560916	0	8.274841	-28.807068	25.378418	185.90509	-84.92617	-20.548922
1448009447987	-3.8118438720703125	6.433837890625	0.527252197265625	-8.031988432411104	0	8.274841	-28.207397	25.378418	185.7489	-84.9049	-20.849941
1448009448028	-5.5756988525390625	6.358856201171875	0.618896484375	-8.622516458602767	0	7.525635	-27.757263	25.978088	185.64886	-85.02504	-20.916176
1448009448068	-3.3500518798828125	7.432403564453125	1.799560546875	-7.381334605977045	0	9.326172	-27.00653	26.127625	187.29742	-86.01919	-19.196949
1448009448108	-2.8156585693359375	10.128173828125	-0.59033203125	-7.213882655679747	0	9.326172	-26.107788	26.727295	190.01398	-87.147705	-16.933731
1448009448149	-1.8539886474609375	8.62139892578125	-1.436553955078125	-7.4977352739404175	0	9.025574	-24.307251	26.878357	191.45517	-88.57887	-14.682627
1448009448189	-1.4850311279296875	10.855377197265625	1.094970703125	-6.571585815724923	0	8.425903	-24.157715	27.627563	192.31328	-90.33304	-12.616762
1448009448229	0.8322601318359375	9.370025634765625	-0.255889892578125	-6.652809284999488	0	7.3760986	-23.556519	27.778625	193.15613	-91.476265	-10.205712
1448009448271	0.1943206787109375	10.243621826171875	0.803375244140625	-6.453792557121206	0	6.47583	-23.10791	29.278564	192.70258	-92.70688	-8.818365
1448009448311	-1.2636566162109375	10.238861083984375	-2.840972900390625	-7.329861909813067	0	4.824829	-22.207642	29.878235	191.09628	-94.372574	-7.878338
1448009448351	-0.4602813720703125	10.862518310546875	-1.950714111328125	-6.899449706817957	0	4.2251587	-21.606445	29.878235	190.51581	-95.26896	-6.7208357
1448009448392	0.1705169677734375	7.15509033203125	2.06854248046875	-6.741612270779304	0	4.675293	-21.907043	29.577637	191.21992	-93.86275	-6.604479
1448009448432	0.5263824462890625	5.0579833984375	0.693878173828125	-7.300957563706527	0	5.8761597	-22.05658	29.278564	191.7443	-93.28475	-6.65263
1448009448472	-2.0420379638671875	3.261993408203125	-2.898101806640625	NaN	0	6.326294	-19.207764	30.027771	191.96707	-94.42119	-7.1629214
1448009448512	-1.3672027587890625	1.73974609375	2.212554931640625	-8.198775921749657	0	6.9259644	-18.006897	29.878235	192.77457	-96.20417	-7.0532823
1448009448553	0.0919647216796875	1.602874755859375	-0.082122802734375	-8.536672177324755	0	8.125305	-15.156555	30.177307	193.45619	-97.456375	-6.2481194
1448009448595	5.9893341064453125	37.83331298828125	-0.917633056640625	-3.256408091507094	0	8.274841	-12.757874	31.077576	195.50885	-102.15784	-1.9196345
1448009448635	3.3114166259765625	0.110382080078125	-2.414886474609375	-8.803149836092837	0	5.4260254	-12.90741	31.677246	192.40498	-103.286285	2.97077
1448009448675	0.6596832275390625	14.528289794921875	-2.0947265625	-6.188140872144478	0	6.175232	-12.606812	31.828308	192.42303	-102.743225	3.0675611
1448009448716	0.1931304931640625	8.741607666015625	-1.780517578125	-7.13186252109582	0	6.326294	-12.90741	31.677246	192.64124	-102.99305	2.4560847
1448009448756	0.4418792724609375	10.1710205078125	-1.78765869140625	-6.835869266852482	0	6.025696	-13.357544	31.677246	192.57304	-103.09186	2.422297
1448009448796	0.0491180419921875	10.134124755859375	-2.0137939453125	-6.948375227079041	0	7.2250366	-13.206482	31.977844	192.63329	-103.2434	2.3142056
1448009448837	-0.2984161376953125	9.97344970703125	-2.13043212890625	-7.059856211360497	0	6.7749023	-11.857605	31.828308	192.92754	-104.21819	1.9525312
1448009448877	-0.2781829833984375	9.227203369140625	-2.486297607421875	-7.264411419599185	0	5.8761597	-9.907532	32.278442	192.76816	-105.63821	1.9851493
1448009448917	-0.5650177001953125	7.9810791015625	-1.44012451171875	-7.36202705372729	0	4.2251587	-9.457397	32.42798	191.27185	-106.36725	2.52234
1448009448958	-0.6066741943359375	9.0093994140625	-3.059967041015625	-7.495159285053813	0	3.3248901	-10.057068	32.278442	189.3094	-105.89252	3.1291244
1448009448998	-0.3793487548828125	8.9903564453125	-4.798828125	-7.854119637632765	0	3.0258179	-10.8078	32.42798	188.65372	-105.35695	3.1622493
1448009449039	-0.4888458251953125	11.3516845703125	-2.1090087890625	-6.834867842385259	0	3.0258179	-11.257935	31.977844	187.94823	-103.50118	1.8437225
1448009449079	-0.9577789306640625	10.94940185546875	-1.800750732421875	-6.94463001546438	0	2.8762817	-11.557007	32.278442	187.01027	-103.60325	0.03571357
1448009449119	0.1205291748046875	10.985107421875	-0.6331787109375	-6.570482281847246	0	2.8762817	-10.507202	31.828308	187.25162	-103.32711	-2.3927908
1448009449159	2.9924468994140625	9.7044677734375	-2.924285888671875	-6.680479595380291	0	3.0258179	-9.457397	31.677246	186.4039	-103.7288	-4.6680865
1448009449202	-3.0406036376953125	9.9425048828125	-0.691497802734375	-7.314531894513552	0	1.5258789	-7.9574585	32.42798	184.7135	-105.5497	-7.270579
1448009449242	-4.4462127685546875	9.2998046875	-0.296356201171875	-7.671831694592258	0	1.675415	-8.106995	32.278442	184.20692	-105.39026	-8.258181
1448009449283	-4.1117706298828125	8.993927001953125	-0.748626708984375	-7.773491625346564	0	2.1255493	-9.007263	32.278442	183.29404	-105.284615	-9.1832905
1448009449323	-3.2572174072265625	7.28839111328125	-2.726715087890625	-8.664471015093277	0	-3.4240723	-8.407593	31.977844	175.96802	-105.59992	-11.437032
1448009449364	-2.5097808837890625	7.118194580078125	-2.450592041015625	-8.337647429195401	0	-6.124878	-9.156799	31.52771	172.08008	-105.28733	-12.063275
1448009449404	-2.3907623291015625	7.40740966796875	-3.140899658203125	-8.437020619071657	0	-7.923889	-10.957336	30.92804	168.65515	-104.746544	-12.144246
1448009449445	-2.8989715576171875	7.763275146484375	-3.100433349609375	-8.478492233567692	0	-8.824158	-9.307861	30.778503	167.35645	-104.40149	-12.103917
1448009449485	-3.0144195556640625	9.879425048828125	-2.351806640625	-7.682170934924146	0	-11.975098	-9.457397	29.4281	163.78674	-103.66068	-11.364777
1448009449525	-3.4119415283203125	10.593536376953125	-2.942138671875	-7.747606027993813	0	-12.724304	-9.75647	29.127502	161.56573	-103.66338	-10.746061
1448009449566	-3.4202728271484375	9.880615234375	-3.44677734375	-8.070637712541956	0	-16.02478	-10.656738	27.328491	159.2088	-103.90943	-10.699712
1448009449606	-3.5428619384765625	8.55712890625	-4.14898681640625	-8.876395639997753	0	-18.273926	-9.007263	26.127625	156.70502	-104.3974	-10.831556
1448009449647	-2.8870697021484375	7.953704833984375	-3.747894287109375	-8.658235578430538	0	-19.024658	-8.256531	25.67749	154.604	-104.90646	-10.719655
1448009449687	-0.4162445068359375	13.297637939453125	-2.67315673828125	-6.611566871167696	0	-21.273804	-8.106995	24.177551	153.38025	-104.42699	-9.6741905
1448009449728	2.2521514892578125	8.629730224609375	-1.11639404296875	-6.681621972733497	0	-21.424866	-8.706665	22.827148	155.3009	-102.00579	-8.487696
1448009449769	-0.5519256591796875	6.0196533203125	-1.40679931640625	-7.791425480330162	0	-19.924927	-10.357666	23.127747	158.07043	-99.562225	-8.37382
1448009449809	0.6894378662109375	11.362396240234375	1.543670654296875	-6.119391738897544	0	-20.074463	-11.257935	22.677612	160.60242	-97.73428	-6.5027666
1448009449850	-2.3848114013671875	9.35931396484375	-2.18280029296875	-7.617604278097416	0	-22.024536	-11.257935	21.177673	160.58777	-93.89996	-4.5231423
1448009449890	-0.9006500244140625	8.9998779296875	-1.10687255859375	-7.162293787270527	0	-23.97461	-11.407471	19.978333	159.11292	-93.27051	-3.4756906
1448009449930	0.8453521728515625	9.255767822265625	1.093780517578125	-6.460721862246727	0	-25.325012	-10.957336	18.62793	157.34619	-91.86287	-2.369608
1448009449970	0.7120513916015625	8.934417724609375	-0.141632080078125	-6.723608427495655	0	-26.824951	-11.857605	17.428589	156.49255	-91.32235	-1.747692
1448009450011	0.0015106201171875	9.01177978515625	0.44036865234375	-6.731919682045435	0	-28.024292	-10.357666	15.927124	153.90979	-89.77551	0.31110978
1448009450053	-0.6923675537109375	9.25457763671875	0.837890625	-6.740641633027641	0	-29.82483	-10.057068	13.978577	152.09387	-88.32115	1.4724554
1448009450094	-0.6245269775390625	9.289093017578125	1.3282470703125	-6.645458891104106	0	-31.62384	-9.75647	12.927246	149.83145	-85.957115	3.2272296
1448009450134	-0.3983917236328125	9.531890869140625	1.85430908203125	-6.4918136980584915	0	-32.073975	-10.357666	10.977173	149.0488	-85.296234	3.9489384
1448009450177	0.8941497802734375	10.176971435546875	1.80908203125	-6.217699994835421	0	-33.724976	-7.357788	9.178162	147.1189	-83.96912	6.002219
1448009450217	-0.7423553466796875	10.65185546875	1.812652587890625	-6.382837054064499	0	-34.924316	-7.507324	8.277893	147.22461	-83.87694	6.9618235
1448009450258	-1.7397308349609375	10.85894775390625	1.286590576171875	-6.580796612451839	0	-35.67505	-5.557251	8.578491	147.4527	-84.22763	7.4979835
1448009450299	-0.5388336181640625	12.197906494140625	0.90216064453125	-6.262416945965147	0	-35.97412	-5.407715	8.277893	148.4649	-85.59769	7.3586416
1448009450340	3.0471954345703125	11.91107177734375	0.41180419921875	-5.886131735731965	0	-36.424255	-6.1569214	8.128357	149.41461	-88.30825	6.111016
1448009450380	5.1526336669921875	10.375732421875	-0.953338623046875	-5.988874569089559	0	-36.57379	-9.156799	8.277893	150.4985	-91.97373	3.8612165
1448009450421	3.6339569091796875	12.6275634765625	-1.90191650390625	-6.017193201853892	0	-37.174988	-9.75647	10.07843	152.34875	-95.57365	0.73050165
1448009450462	0.9096221923828125	11.4183349609375	-1.62103271484375	-6.534456293119668	0	-35.824585	-13.206482	12.17804	155.10559	-97.851494	-3.1406405
1448009450502	-0.6876068115234375	9.709228515625	-0.70697021484375	-6.923086259915203	0	-35.67505	-13.656616	13.227844	157.01251	-99.50191	-6.990902
1448009450543	-2.0694122314453125	7.347900390625	-0.0523681640625	-7.225614962335419	0	-35.523987	-18.457031	14.727783	157.24963	-100.28611	-8.960097
1448009450583	-0.5150299072265625	6.442169189453125	-1.01165771484375	-7.5895114660476874	0	-35.37445	-20.407104	13.37738	151.57971	-104.049255	-13.836674
1448009450624	-0.4055328369140625	4.999664306640625	-2.710052490234375	-8.433982435092648	0	-35.67505	-22.357178	11.877441	147.39056	-105.84083	-14.824108
1448009450665	-0.1127471923828125	6.65045166015625	-2.6422119140625	-7.832899781194991	0	-37.324524	-25.056458	10.377502	145.69373	-106.340225	-15.0487795
1448009450705	-0.7447357177734375	6.91229248046875	-3.2611083984375	-8.101769109777216	0	-37.174988	-26.40686	9.927368	143.557	-106.16758	-14.77964
1448009450746	-3.4143218994140625	8.713043212890625	-4.828582763671875	-9.120933499575276	0	-38.824463	-28.057861	7.3776245	140.90936	-104.29166	-12.932661
1448009450786	-4.1950836181640625	11.93011474609375	-2.959991455078125	-7.621413583958667	0	-39.874268	-30.456543	4.977417	138.86719	-102.2164	-11.82789
1448009450827	-2.3038787841796875	13.780853271484375	-2.75885009765625	-6.993072084543199	0	-40.174866	-32.107544	5.128479	138.67114	-101.356415	-11.708987
1448009450867	-3.0084686279296875	6.96466064453125	-5.925933837890625	NaN	0	-38.974	-36.00769	4.827881	137.08188	-102.24771	-13.026493
1448009450907	-2.3919525146484375	10.881561279296875	-5.57244873046875	-8.098630435230273	0	-38.974	-38.856506	4.5272827	134.72821	-103.24087	-13.327399
1448009450947	3.8255767822265625	11.042236328125	3.12066650390625	-5.565317220668042	0	-39.274597	-38.256836	4.827881	136.31586	-100.83948	-12.148777
1448009450988	-0.3983917236328125	9.2569580078125	0.11663818359375	-6.810735439013733	0	-38.974	-39.457703	7.2280884	140.20215	-97.979164	-10.77859
1448009451028	-0.1805877685546875	7.168182373046875	-0.370147705078125	-7.23416012715281	0	-37.924194	-40.80658	7.827759	142.2945	-96.13285	-10.194125
1448009451068	-0.6578521728515625	10.931549072265625	4.173980712890625	-6.005589922099036	0	-39.424133	-41.107178	7.5271606	144.25769	-93.4644	-8.495754
1448009451109	-0.3531646728515625	9.453338623046875	-1.075927734375	-6.973889952038805	0	-38.974	-43.507385	6.92749	144.38657	-91.00621	-7.275567
1448009451150	0.8881988525390625	8.51190185546875	1.726959228515625	-6.470875200721222	0	-39.12506	-44.107056	6.1782837	144.77295	-89.04651	-5.8799157
1448009451192	0.1883697509765625	8.08819580078125	1.08782958984375	-6.746470077659845	0	-40.473938	-44.407654	5.4275513	144.80713	-87.367256	-4.1734686
1448009451232	-0.1698760986328125	9.78778076171875	1.158050537109375	-6.523924993211281	0	-40.473938	-44.25659	4.5272827	145.13077	-84.84706	-1.7097733
1448009451273	-1.2577056884765625	9.17364501953125	1.039031982421875	-6.814114191599805	0	-41.523743	-45.307922	5.278015	145.88736	-83.472115	-0.20390888
1448009451313	-2.0491790771484375	9.791351318359375	0.4141845703125	-6.9506663853087485	0	-41.22467	-45.606995	4.977417	146.18579	-82.31274	1.1737033
1448009451354	-1.5778656005859375	9.3426513671875	1.3377685546875	-6.789556029274836	0	-41.674805	-46.05713	5.5786133	146.36206	-81.44557	2.3128502
1448009451394	-1.1363067626953125	9.470001220703125	2.00189208984375	-6.591699294246933	0	-42.42401	-46.357727	4.977417	145.99774	-80.79342	3.4042487
1448009451435	-0.5495452880859375	9.84967041015625	2.219696044921875	-6.412513794996922	0	-42.12494	-47.25647	4.5272827	145.64258	-80.50292	3.9955432
1448009451475	-0.2055816650390625	10.6708984375	1.45440673828125	-6.3541047413874425	0	-42.42401	-48.757935	4.5272827	145.12332	-80.09639	5.0719724
1448009451515	-0.5233612060546875	12.09912109375	1.723388671875	-6.159800230397847	0	-41.075134	-48.457336	5.8776855	145.38501	-80.4834	5.7984324
1448009451556	-0.6864166259765625	12.00390625	1.081878662109375	-6.285326326152308	0	-38.07373	-50.40741	9.628296	146.06714	-82.7926	5.520904
1448009451596	2.4699554443359375	10.73040771484375	0.115447998046875	-6.157516394870273	0	-34.024048	-49.957275	15.327454	147.16888	-87.56764	3.7282004
1448009451636	4.0540924072265625	12.16339111328125	-1.609130859375	-5.984512525708913	0	-29.074097	-49.957275	18.777466	149.45648	-93.683395	0.63157994
1448009451677	3.9588775634765625	12.335968017578125	-0.593902587890625	-5.844158455552427	0	-25.775146	-49.80774	23.727417	153.22174	-97.35167	-2.7888079
1448009451717	-3.1489105224609375	10.52093505859375	-0.62841796875	-7.209754496820649	0	-20.074463	-48.3078	26.878357	156.58508	-98.70127	-6.833758
1448009451758	-2.3967132568359375	8.3143310546875	-0.7236328125	-7.527568410628856	0	-14.074707	-47.25647	29.278564	155.15796	-101.47381	-11.510334
1448009451798	-0.4507598876953125	6.19580078125	-0.803375244140625	-7.583614248940389	0	-13.024902	-46.206665	30.027771	150.88089	-104.52906	-14.420219
1448009451838	-0.4543304443359375	4.5438232421875	-1.26397705078125	-8.125672950104523	0	-13.323975	-45.307922	29.577637	145.7627	-106.93401	-16.115923
1448009451878	-0.8030548095703125	4.777099609375	-3.13494873046875	-8.890578128352855	0	-13.774109	-43.95752	29.4281	141.08963	-108.27732	-17.036108
1448009451919	-1.9884796142578125	4.209381103515625	-3.018310546875	NaN	0	-13.925171	-45.75653	27.478027	138.5261	-107.602745	-16.884348
1448009451959	-1.9325408935546875	8.966552734375	-5.090423583984375	-8.41247365822321	0	-17.074585	-47.557068	24.177551	137.39066	-103.97241	-13.525617
1448009451999	-2.7359161376953125	12.295501708984375	-6.499603271484375	-8.057319490817815	0	-18.875122	-48.007202	22.677612	136.76437	-102.454765	-11.804777
1448009452039	-5.2864837646484375	17.027679443359375	0.213043212890625	-6.349109740924558	0	-18.574524	-48.90747	21.928406	135.6117	-100.61105	-10.253034
1448009452080	-2.3253021240234375	6.963470458984375	-7.313690185546875	NaN	0	-16.474915	-47.106934	23.428345	133.24734	-103.89885	-13.431868
1448009452120	2.7056121826171875	11.62066650390625	1.517486572265625	-5.826177251247167	0	-16.62445	-47.106934	22.677612	132.1997	-104.35716	-13.664555
1448009452160	3.9291229248046875	8.54522705078125	1.134246826171875	-6.117616833630462	0	-16.174316	-48.15674	22.077942	136.56635	-100.05091	-11.445626
1448009452201	-1.5731048583984375	7.113433837890625	0.353485107421875	-7.3788821236984585	0	-16.174316	-48.007202	21.478271	139.163	-98.32128	-10.866975
1448009452241	-0.2888946533203125	8.185791015625	0.542724609375	-6.901497424929769	0	-16.323853	-49.206543	21.627808	140.31116	-97.28329	-10.064941
1448009452281	-0.8185272216796875	11.1993408203125	2.303009033203125	-6.245164526509579	0	-18.72406	-48.606873	19.528198	142.60477	-94.22528	-7.54208
1448009452322	-0.7804412841796875	9.032012939453125	0.2904052734375	-6.883933934793278	0	-18.273926	-49.957275	18.02826	143.65338	-91.67563	-5.7952294
1448009452362	0.4418792724609375	7.3955078125	0.915252685546875	-6.848113939443382	0	-20.223999	-49.80774	16.227722	143.58246	-88.67795	-3.482518
1448009452402	0.7489471435546875	8.96893310546875	1.119964599609375	-6.514511779943797	0	-21.424866	-48.90747	14.727783	143.40546	-87.016106	-1.820154
1448009452443	0.3442840576171875	9.385498046875	1.012847900390625	-6.529004844267246	0	-22.174072	-50.40741	14.578247	143.41132	-86.1704	-0.89269745
1448009452483	-1.0303802490234375	9.798492431640625	0.429656982421875	-6.77381758692796	0	-22.773743	-49.656677	13.6779785	143.45721	-84.64011	0.5613242
1448009452523	-1.4493255615234375	8.91656494140625	1.017608642578125	-6.893723754351905	0	-24.124146	-50.556946	12.028503	143.36224	-82.81652	2.4629304
1448009452564	0.2086029052734375	9.324798583984375	0.8521728515625	-6.583934280316943	0	-25.775146	-49.80774	11.578369	142.80676	-81.750824	4.097109
1448009452604	-0.1924896240234375	9.96392822265625	2.65411376953125	-6.281610302403131	0	-27.424622	-50.40741	11.727905	143.08661	-81.10169	5.795449
1448009452645	-1.3076934814453125	10.343597412109375	1.142578125	-6.616226658890207	0	-26.974487	-49.357605	11.578369	143.2684	-80.815216	6.987275
1448009452685	-0.8244781494140625	11.13031005859375	0.99261474609375	-6.4452837912398895	0	-27.574158	-48.3078	12.628174	143.36584	-80.839134	7.2551246
1448009452725	1.0702972412109375	13.730865478515625	0.779571533203125	-5.859356119400564	0	-24.874878	-48.3078	16.978455	144.86053	-83.60917	6.5794663
1448009452766	3.8208160400390625	11.714691162109375	-0.90692138671875	-5.981866569363338	0	-21.273804	-47.106934	22.227478	146.9743	-88.2689	4.4910684
1448009452806	3.4839935302734375	13.254791259765625	0.23565673828125	-5.545858819727084	0	-16.62445	-44.407654	26.27716	149.67242	-93.51242	1.4181879
1448009452846	1.2440643310546875	11.240997314453125	-1.481781005859375	-6.489480671478875	0	-13.774109	-45.45746	27.778625	153.4046	-96.6838	-2.3858044
1448009452886	-1.3719635009765625	10.566162109375	-1.7757568359375	-7.082918342305595	0	-10.174561	-41.70685	28.378296	155.92072	-98.93507	-6.4234605
1448009452928	-1.3743438720703125	6.927764892578125	0.8331298828125	-7.279437380911091	0	-6.274414	-39.00757	32.878113	153.45056	-102.80649	-10.880012
1448009452968	-1.2220001220703125	5.878021240234375	-1.531768798828125	-8.039044535711556	0	-5.973816	-38.70697	32.728577	148.73004	-105.24952	-15.698052
1448009453008	-0.9768218994140625	5.313873291015625	-3.6800537109375	-8.99604606554279	0	-7.1746826	-38.407898	32.12738	143.26111	-107.31824	-17.602327
1448009453048	-1.0934600830078125	4.887786865234375	-3.113525390625	-8.981493102924498	0	-8.224487	-38.856506	31.977844	140.99847	-107.73005	-18.227196
1448009453089	-2.2205657958984375	5.31268310546875	-2.53271484375	-9.058667873520388	0	-9.423828	-41.256714	29.727173	137.54037	-105.92831	-18.030348
1448009453129	-1.4183807373046875	8.206024169921875	-4.20135498046875	-8.198405841277728	0	-11.975098	-41.70685	28.378296	137.10056	-103.87104	-15.8379
1448009453170	-5.1115264892578125	15.454254150390625	-2.355377197265625	-6.980409903090878	0	-14.674377	-42.30652	27.627563	136.18338	-101.7461	-13.056447
1448009453210	-3.7701873779296875	13.795135498046875	-3.198028564453125	-7.193762547025923	0	-13.774109	-41.557312	27.478027	136.02985	-101.09467	-13.297332
1448009453250	-3.2393646240234375	6.48382568359375	-5.345123291015625	NaN	0	-13.174438	-40.20691	27.778625	135.5	-101.76866	-14.29713
1448009453291	-2.8870697021484375	13.746337890625	-1.152099609375	-6.690967066051977	0	-15.274048	-40.356445	26.428223	133.73901	-102.37795	-15.671848
1448009453331	5.6537017822265625	9.243865966796875	0.63079833984375	-5.865995212804615	0	-14.674377	-41.256714	25.227356	137.85583	-99.09246	-13.688955
1448009453372	0.4299774169921875	7.3526611328125	-1.365142822265625	-7.2733223350885785	0	-15.574646	-41.70685	24.928284	139.87012	-96.52959	-12.415895
1448009453414	2.7782135009765625	10.01629638671875	3.790740966796875	-5.734100662431952	0	-16.174316	-41.256714	23.878479	142.37622	-94.077156	-10.058376
1448009453454	-1.8206634521484375	11.2421875	0.89263916015625	-6.595032904638638	0	-18.273926	-41.85791	22.677612	145.15955	-90.75477	-6.990952
1448009453494	-0.0520477294921875	8.357177734375	0.93548583984375	-6.766761871953284	0	-19.474792	-42.007446	21.627808	146.09781	-88.74767	-4.9640117
1448009453535	0.2954864501953125	8.329803466796875	1.96856689453125	-6.551779450181095	0	-20.825195	-41.557312	20.72754	146.72992	-87.02313	-3.0304527
1448009453575	0.7203826904296875	8.644012451171875	1.431793212890625	-6.5208446295422124	0	-21.723938	-41.70685	19.82727	147.14865	-85.22034	-1.3050238
1448009453615	-0.1805877685546875	9.28076171875	0.572479248046875	-6.696511062647534	0	-23.674011	-41.85791	19.677734	148.26483	-83.54489	0.35564855
1448009453655	-1.4993133544921875	9.5521240234375	1.472259521484375	-6.720328756180091	0	-24.723816	-41.256714	19.677734	149.0683	-82.38273	1.7206843
1448009453696	-1.5873870849609375	9.688995361328125	0.81646728515625	-6.820285287595522	0	-26.67389	-40.20691	18.478394	148.50897	-80.70024	3.5366857
1448009453736	-0.8339996337890625	9.31646728515625	1.834075927734375	-6.5946623326251235	0	-28.92456	-40.356445	18.02826	147.8335	-79.72983	5.1190147
1448009453776	-0.6197662353515625	9.803253173828125	1.2139892578125	-6.582088223577239	0	-30.574036	-39.00757	18.327332	147.34647	-79.29274	5.918039
1448009453817	-0.5935821533203125	10.00677490234375	2.561279296875	-6.346184989354826	0	-33.724976	-37.657166	17.578125	146.33514	-78.43477	7.121443
1448009453857	0.3526153564453125	12.619232177734375	1.38775634765625	-6.017193201853892	0	-36.125183	-37.8067	17.727661	145.50912	-78.30434	8.047573
1448009453897	0.2133636474609375	12.978668212890625	2.827880859375	-5.8041116839987446	0	-37.324524	-36.756897	19.677734	146.13336	-80.02701	7.8401093
1448009453938	0.4466400146484375	12.65374755859375	0.622467041015625	-6.102162847846138	0	-37.324524	-36.306763	21.028137	146.44977	-81.736565	7.1655006
1448009453978	4.7003631591796875	11.800384521484375	-1.629364013671875	-5.950256697466862	0	-36.424255	-36.00769	26.127625	148.18597	-90.29561	3.2808573
1448009454018	3.9529266357421875	13.25360107421875	0.384429931640625	-5.61244243958318	0	-36.125183	-36.906433	28.077698	149.28253	-92.98631	1.5373689
1448009454059	-1.5909576416015625	10.631622314453125	-1.362762451171875	-7.035697219013325	0	-30.274963	-40.20691	32.42798	153.10956	-97.26817	-3.860934
1448009454099	-0.6447601318359375	9.68304443359375	-1.1044921875	-6.989901202780493	0	-27.874756	-42.45758	33.328247	152.40216	-100.18469	-8.555535
1448009454139	-1.3350677490234375	7.227691650390625	-0.6046142578125	-7.5070327268908414	0	-26.374817	-45.15686	32.12738	148.54001	-103.20865	-12.761222
1448009454179	-0.8220977783203125	6.31243896484375	-0.2904052734375	-7.526263201830497	0	-26.824951	-45.307922	32.42798	146.22406	-104.44807	-14.226408
1448009454220	-0.5864410400390625	4.7056884765625	-1.926910400390625	-8.325945740514413	0	-27.424622	-48.3078	31.227112	138.99762	-107.292465	-16.797653
1448009454261	-0.2103424072265625	4.462890625	-2.3851318359375	-8.440065557757164	0	-28.024292	-51.60675	29.4281	137.37292	-107.46981	-17.085203
1448009454301	-2.4705047607421875	4.937774658203125	-3.92523193359375	NaN	0	-32.225037	-55.207825	25.828552	134.35873	-105.48012	-15.921956
1448009454341	-1.9872894287109375	10.424530029296875	-6.3936767578125	-8.37706726418265	0	-33.724976	-57.307434	24.028015	133.31567	-102.71128	-12.745245
1448009454381	-6.3743133544921875	19.260467529296875	1.10211181640625	-6.0665109648016475	0	-37.924194	-58.506775	21.177673	132.26883	-100.55543	-10.219751
1448009454422	-4.8889617919921875	10.795867919921875	-6.45556640625	NaN	0	-35.523987	-62.857056	21.777344	132.1034	-100.60664	-11.211091
1448009454463	8.167373657226563	14.923431396484375	0.396331787109375	-5.912785810746783	0	-35.523987	-65.7074	20.428467	130.73578	-101.11464	-12.365896
1448009454503	0.1026763916015625	2.800201416015625	-0.83551025390625	-8.368765672370095	0	-33.27484	-67.65747	20.428467	134.6784	-97.89684	-11.156112
1448009454544	-0.2674713134765625	6.177947998046875	0.485595703125	-7.2775542535384385	0	-32.225037	-68.707275	20.72754	135.75934	-97.170555	-10.937411
1448009454584	1.2833404541015625	13.46307373046875	4.83453369140625	-5.381563516989202	0	-34.62372	-71.25702	19.677734	138.89941	-94.31444	-8.724109
1448009454624	-0.7114105224609375	8.67138671875	0.2999267578125	-6.9325953107029274	0	-35.073853	-74.2569	15.927124	140.12863	-90.1293	-5.591516
1448009454665	-0.0687103271484375	8.4000244140625	2.3946533203125	-6.531547724504758	0	-37.174988	-75.6073	12.628174	140.4076	-87.80311	-3.9639955
1448009454705	0.5323333740234375	7.280059814453125	0.523681640625	-6.919373852102755	0	-38.674927	-75.157166	9.927368	139.04736	-86.09572	-2.4407363
1448009454746	1.4463958740234375	8.10247802734375	0.539154052734375	-6.630434394414932	0	-38.674927	-76.20697	9.0286255	138.89532	-85.244484	-1.5352346
1448009454786	0.2538299560546875	9.328369140625	1.83526611328125	-6.427626012239671	0	-41.674805	-77.70691	6.92749	138.83148	-83.404274	0.48700348
1448009454827	-1.6219024658203125	8.832061767578125	0.19757080078125	-7.084885448005418	0	-43.32428	-78.30658	3.7780762	138.19678	-81.60129	2.1652257
1448009454867	-1.0756072998046875	9.755645751953125	1.970947265625	-6.5430152044456635	0	-46.473694	-80.10712	0.17852783	137.89429	-79.10789	4.652817
1448009454907	0.8489227294921875	10.48046875	2.04949951171875	-6.148883363734837	0	-48.124695	-80.85785	-1.9226074	137.64691	-77.90783	6.36423
1448009454948	0.1240997314453125	10.624481201171875	2.83026123046875	-6.121651945673326	0	-49.1745	-81.45752	-3.2714844	137.65701	-77.58461	7.1002693
1448009454988	-1.0625152587890625	11.25408935546875	1.24493408203125	-6.424809323640663	0	-49.324036	-83.25653	-3.5720825	137.90308	-77.37891	8.061051
1448009455028	0.5275726318359375	12.940582275390625	2.3232421875	-5.832760912325895	0	-48.124695	-87.30774	-2.822876	138.72748	-77.88245	8.335235
1448009455068	2.2104949951171875	11.312408447265625	1.47821044921875	-5.9334728536747505	0	-41.82434	-91.656494	4.5272827	140.92865	-82.35909	6.973343
1448009455109	5.9702911376953125	10.460235595703125	-2.30181884765625	-6.047782647993895	0	-33.424377	-94.506836	13.528442	143.39069	-88.02004	4.4278345
1448009455149	4.6872711181640625	10.460235595703125	-2.30181884765625	-6.047782647993895	0	-33.424377	-94.506836	13.528442	143.39069	-88.02004	4.4278345
1448009455190	-0.8697052001953125	10.914886474609375	-2.38037109375	-7.038060641301254	0	-18.424988	-96.75751	24.47815	150.12268	-96.19917	-1.3454473
1448009455231	-1.2100982666015625	10.15673828125	-0.64984130859375	-6.9261835880805895	0	-4.774475	-92.55676	31.977844	150.8183	-99.33718	-7.609907
1448009455271	-0.8351898193359375	7.662109375	-0.40704345703125	-7.272852558238526	0	1.9760132	-88.20648	35.87799	148.67133	-102.86584	-11.589387
1448009455311	0.0074615478515625	5.81256103515625	-1.65435791015625	-7.765603999795305	0	6.7749023	-84.4574	39.328003	144.23611	-106.16026	-14.2765665
1448009455352	-0.8292388916015625	3.939208984375	-1.884063720703125	-8.699393437487696	0	7.826233	-83.706665	40.377808	139.24731	-108.69652	-15.698329
1448009455392	-0.6911773681640625	2.871612548828125	-4.0799560546875	NaN	0	8.724976	-83.55713	40.377808	134.6181	-109.6038	-15.829208
1448009455433	-2.4145660400390625	5.163909912109375	-5.933074951171875	NaN	0	8.876038	-86.40747	37.37793	133.98428	-107.36116	-14.2881565
1448009455474	-1.8635101318359375	9.4854736328125	-5.36773681640625	-8.305191766184056	0	6.025696	-92.40723	33.62732	134.06265	-105.572235	-12.79309
1448009455514	-3.2488861083984375	14.9412841796875	-3.243255615234375	-6.899859135035479	0	6.7749023	-93.0069	32.728577	134.5409	-102.43136	-9.403459
1448009455555	-3.1655731201171875	10.536407470703125	-5.75335693359375	-8.534799144129794	0	8.425903	-91.207886	33.477783	134.83365	-102.64517	-9.882527
1448009455595	-3.7428131103515625	10.66851806640625	-6.637664794921875	-9.269906268778167	0	13.525391	-88.957214	34.228516	134.80957	-103.25056	-10.781827
1448009455636	1.8617706298828125	3.805908203125	0.284454345703125	-7.366900596649058	0	18.325806	-86.55701	29.4281	139.60211	-99.81128	-11.2304
1448009455676	-0.6626129150390625	7.491912841796875	0.610565185546875	-7.078988386829113	0	19.226074	-86.40747	26.577759	143.19202	-97.768524	-10.683845
1448009455717	0.3014373779296875	14.260498046875	4.8892822265625	-5.396246538953234	0	18.17627	-88.357544	21.627808	146.38876	-94.41859	-8.0795
1448009455757	-2.3407745361328125	10.98748779296875	1.1187744140625	-6.681621972733497	0	17.726135	-90.60669	19.82727	147.11093	-92.7881	-6.7574778
1448009455798	1.4344940185546875	8.470245361328125	2.161376953125	-6.332968422960228	0	15.475464	-89.25781	15.478516	147.84244	-89.77641	-3.9790514
1448009455838	0.4430694580078125	8.06439208984375	-0.343963623046875	-6.364289356917862	0	15.02533	-89.70795	13.978577	148.14261	-88.754616	-2.8657444
1448009455878	0.3597564697265625	8.229827880859375	1.59246826171875	-6.615667125070681	0	12.776184	-89.10675	10.678101	148.18573	-87.028786	-1.0602852
1448009455918	-0.5804901123046875	9.3521728515625	0.910491943359375	-6.694980697672482	0	11.875916	-88.957214	7.6782227	148.94617	-84.08684	1.4635248
1448009455959	-1.2600860595703125	9.253387451171875	-0.333251953125	-7.0389205679709645	0	11.7248535	-89.10675	6.92749	149.02365	-83.27605	2.0187807
1448009456001	-1.8028106689453125	9.027252197265625	1.26873779296875	-6.892294024078963	0	11.575317	-87.60681	3.0273438	149.14352	-80.78913	3.8811529
1448009456041	0.4085540771484375	9.872283935546875	1.67578125	-6.34876552410395	0	10.975647	-87.60681	1.0772705	149.11603	-79.210655	5.4535675
1448009456081	0.0348358154296875	10.143646240234375	2.40179443359375	-6.259731453062037	0	9.475708	-85.65674	0.32806396	149.42203	-78.51632	7.183953
1448009456122	-0.1877288818359375	12.019378662109375	1.44012451171875	-6.163555354103907	0	9.17511	-84.4574	-0.27160645	150.06082	-77.956985	8.524742
1448009456162	1.4368743896484375	13.799896240234375	2.1756591796875	-5.633779633680558	0	11.276245	-81.90765	0.32806396	151.34027	-79.15139	8.558132
1448009456202	0.7132415771484375	12.27764892578125	1.4425048828125	-6.007469127584285	0	14.125061	-77.70691	3.7780762	153.44598	-82.5855	7.3037233
1448009456242	2.5068511962890625	10.299560546875	0.22137451171875	-6.197197521073216	0	17.276001	-71.85669	9.327698	154.5658	-85.221085	6.104245
1448009456283	4.3254547119140625	12.152679443359375	-1.61865234375	-5.951800159343751	0	21.025085	-64.956665	13.827515	157.16943	-91.17937	3.1010273
1448009456323	-0.5816802978515625	10.662567138671875	0.465362548828125	-5.897684893532437	0	25.675964	-59.857178	14.727783	160.92444	-95.088005	-0.45957592
1448009456363	-2.2110443115234375	10.510223388671875	-1.158050537109375	-7.134310992418847	0	26.725769	-52.957153	15.478516	164.9834	-98.92709	-6.535628
1448009456404	-0.1115570068359375	7.652587890625	0.598663330078125	-6.95358506595791	0	28.526306	-46.357727	18.177795	163.05164	-102.2556	-10.569783
1448009456444	-0.3365020751953125	6.082733154296875	0.220184326171875	-7.363975304048237	0	27.626038	-41.407776	21.627808	161.1706	-103.965805	-12.124729
1448009456485	-0.4936065673828125	3.916595458984375	-2.22564697265625	-8.712368800049408	0	25.076294	-36.457825	24.177551	153.80487	-108.77736	-14.443494
1448009456526	-0.8149566650390625	4.5914306640625	-2.921905517578125	-8.882171267514194	0	23.275757	-34.50775	24.928284	150.47882	-110.00591	-14.545231
1448009456566	-1.7885284423828125	3.738067626953125	-4.63934326171875	NaN	0	20.574951	-33.457947	23.57788	149.00003	-109.023155	-13.709643
1448009456607	-1.7623443603515625	8.610687255859375	-5.70574951171875	-8.737678401476954	0	17.875671	-35.256958	20.578003	148.69	-106.01048	-11.40643
1448009456647	-2.7275848388671875	20.8636474609375	-4.176361083984375	-6.070331602509539	0	15.02533	-35.707092	18.478394	148.68622	-103.22689	-8.202798
1448009456688	-4.4152679443359375	9.7901611328125	-5.423675537109375	NaN	0	13.975525	-34.057617	18.777466	147.99677	-103.737595	-8.5937195
1448009456731	-2.9120635986328125	12.302642822265625	-4.29180908203125	-7.548554353516837	0	12.625122	-32.406616	17.578125	145.64331	-105.21019	-10.904952
1448009456774	7.3651885986328125	9.2950439453125	-0.548675537109375	-5.792679596350229	0	10.975647	-31.956482	15.028381	148.47107	-103.067856	-10.856101
1448009456814	-1.3910064697265625	8.1715087890625	2.0185546875	-6.840279550885317	0	8.724976	-32.25708	12.028503	154.55127	-100.11967	-9.495428
1448009456854	-0.4650421142578125	13.307159423828125	5.495086669921875	-5.524403836873865	0	6.025696	-33.607483	9.477234	157.64441	-96.092064	-6.8936734
1448009456898	-1.1113128662109375	8.222686767578125	-1.676971435546875	-7.475419512388559	0	2.7252197	-33.906555	7.977295	156.56384	-93.70255	-4.702223
1448009456938	1.8343963623046875	8.338134765625	2.005462646484375	-6.31690176456272	0	-0.12512207	-34.657288	6.32782	156.39038	-91.81382	-2.6403594
1448009456978	1.3142852783203125	9.184356689453125	1.393707275390625	-6.358071437966032	0	-1.1749268	-33.457947	5.5786133	156.48279	-90.8191	-1.5448625
1448009457019	-0.3876800537109375	7.694244384765625	1.55914306640625	-6.829066222280435	0	-4.1748047	-33.607483	4.2282104	155.61737	-88.05422	1.0746711
1448009457059	-0.1056060791015625	9.170074462890625	0.9378662109375	-6.643953229535969	0	-5.3741455	-32.707214	2.8778076	155.21063	-86.87756	1.8888013
1448009457100	-0.1901092529296875	9.1427001953125	0.374908447265625	-6.7525044891083645	0	-9.274292	-32.107544	0.62713623	154.15479	-83.663574	3.7961454
1448009457140	-1.1981964111328125	8.908233642578125	1.467498779296875	-6.777155164598274	0	-10.025024	-33.15735	-0.5722046	153.143	-81.90347	5.152602
1448009457180	0.5025787353515625	10.174591064453125	1.603179931640625	-6.302267006198567	0	-13.475037	-30.307007	-1.171875	152.18146	-80.28711	6.606557
1448009457220	0.1740875244140625	10.307891845703125	1.54248046875	-6.338969708451145	0	-15.124512	-28.807068	-2.2216797	151.88861	-79.65128	7.996753
1448009457261	-1.6956939697265625	10.68280029296875	0.793853759765625	-6.679147349198102	0	-19.624329	-27.456665	-2.822876	151.50775	-79.42022	8.78014
1448009457301	-0.1425018310546875	13.003662109375	2.674346923828125	-5.865089223388011	0	-21.273804	-27.307129	-2.822876	151.0108	-79.949356	8.874683
1448009457341	0.4823455810546875	12.83465576171875	1.24017333984375	-5.991213429465215	0	-23.674011	-27.307129	-1.6220093	151.06369	-82.57801	8.1983595
1448009457382	2.6270599365234375	11.933685302734375	0.063079833984375	-5.982488982620642	0	-24.424744	-27.9068	-0.5722046	151.74347	-87.67581	5.831225
1448009457422	3.4125823974609375	13.35595703125	-1.588897705078125	-5.910494030749058	0	-25.624084	-28.956604	2.4276733	152.33105	-93.98411	2.3464928
1448009457462	3.7089385986328125	13.557098388671875	2.028076171875	-5.4140935220105035	0	-25.775146	-32.107544	5.7281494	153.35925	-96.30631	0.5638165
1448009457502	-3.4178924560546875	11.6611328125	-1.884063720703125	-7.284859205282551	0	-23.223877	-37.057495	8.877563	156.0061	-99.93235	-5.185266
1448009457543	-1.3933868408203125	9.017730712890625	-0.017852783203125	-7.048613218148573	0	-23.374939	-38.407898	9.628296	152.71143	-102.81363	-9.780676
1448009457583	1.3047637939453125	4.64617919921875	-0.38323974609375	-7.447001888653427	0	-23.825073	-44.55719	10.07843	143.75067	-106.91887	-14.046456
1448009457625	-1.2434234619140625	4.00347900390625	-2.645782470703125	-9.468556997870001	0	-23.374939	-47.557068	8.877563	136.20187	-109.58961	-15.442993
1448009457665	-0.0960845947265625	4.454559326171875	-2.1708984375	-8.327554262388984	0	-23.825073	-51.90735	6.92749	131.49512	-110.07949	-15.932896
1448009457706	-1.8504180908203125	4.276031494140625	-3.633636474609375	NaN	0	-27.124023	-54.307556	4.2282104	128.36664	-108.538025	-15.365964
1448009457747	-1.3481597900390625	6.04107666015625	-4.3037109375	-9.182736286824447	0	-28.474426	-56.707764	2.2781372	127.31662	-107.126976	-14.362638
1448009457788	-1.6183319091796875	13.116729736328125	-6.202056884765625	-7.505221947097171	0	-33.87451	-56.407166	-1.0223389	125.51538	-103.97359	-10.729716
1448009457828	-4.1831817626953125	11.02557373046875	-5.19635009765625	-8.52361836719414	0	-35.37445	-61.506653	-0.12207031	122.229126	-103.216034	-9.213857
1448009457869	-3.2667388916015625	9.243865966796875	-6.1318359375	NaN	0	-33.424377	-65.7074	0.32806396	119.22821	-104.679375	-11.421784
1448009457912	4.6575164794921875	12.5894775390625	2.0994873046875	-5.408136481537878	0	-35.224915	-67.65747	-0.42266846	119.76456	-102.1008	-11.426534
1448009457952	0.4264068603515625	7.0384521484375	-3.471771240234375	-7.808328805053056	0	-36.424255	-69.607544	0.4776001	122.88043	-99.455986	-9.440056
1448009457992	0.4061737060546875	10.174591064453125	2.54937744140625	-6.72167878680807	0	-37.924194	-72.00775	1.8280029	124.2793	-97.863655	-8.572344
1448009458033	0.4752044677734375	11.03985595703125	2.726715087890625	-6.032772299548466	0	-40.774536	-72.30682	-0.5722046	125.40137	-94.58468	-6.2401524
1448009458074	-0.7375946044921875	9.579498291015625	0.1856689453125	-6.802008075655541	0	-42.575073	-72.75696	-1.7715454	124.56125	-91.93806	-4.198272
1448009458114	1.3214263916015625	7.896575927734375	0.66412353515625	-6.663015126882655	0	-45.274353	-74.10736	-3.7216187	123.19388	-89.02985	-1.6242931
1448009458155	0.4133148193359375	7.56927490234375	1.431793212890625	-6.738313355214295	0	-47.224426	-74.85657	-5.522156	122.10974	-87.14938	-0.0031401797
1448009458197	0.2062225341796875	9.722320556640625	1.35443115234375	-6.447586120426999	0	-49.324036	-75.157166	-7.0220947	122.11133	-84.90949	1.8421427
1448009458237	-1.3838653564453125	9.141510009765625	-0.036895751953125	-7.027976437628301	0	-51.27411	-75.45776	-8.221436	122.52161	-83.01383	3.2175794
1448009458278	-1.2434234619140625	9.165313720703125	1.19256591796875	-6.787584237080267	0	-53.074646	-76.057434	-9.422302	122.63666	-82.1903	3.8335388
1448009458318	-1.6968841552734375	9.4854736328125	0.68792724609375	-6.895154186725637	0	-55.02472	-76.657104	-10.322571	122.623505	-80.532684	5.053748
1448009458359	0.3264312744140625	10.04486083984375	2.060211181640625	-6.280766297753333	0	-56.974792	-78.15704	-11.071777	122.6084	-78.78937	7.0322227
1448009458399	-0.8006744384765625	10.57568359375	1.427032470703125	-6.459654881540994	0	-58.624268	-78.756714	-10.772705	122.47626	-78.27658	8.109938
1448009458439	0.9953155517578125	12.3990478515625	2.164947509765625	-5.862070761537451	0	-58.924866	-81.007385	-10.322571	122.48996	-78.32981	8.60557
1448009458479	1.0369720458984375	13.270263671875	2.0233154296875	-5.765492336566503	0	-58.47473	-83.25653	-5.0720215	123.60297	-80.26265	8.444837
1448009458520	0.9976959228515625	11.236236572265625	1.236602783203125	-6.136377216800005	0	-54.12445	-87.00714	2.8778076	125.48453	-84.50225	6.473262
1448009458560	4.0457611083984375	11.445709228515625	-2.79217529296875	-6.2429929728510585	0	-48.124695	-90.30762	13.827515	127.09442	-90.39993	3.4913814
1448009458601	2.5568389892578125	13.0369873046875	1.63055419921875	-5.656373440742775	0	-38.674927	-91.35742	23.878479	130.42996	-94.97623	-0.11509901
1448009458641	-2.1717681884765625	11.72064208984375	-0.810516357421875	-6.850528697756884	0	-28.474426	-91.50696	32.278442	134.35864	-97.15479	-4.007696
1448009458681	-4.2545928955078125	11.202911376953125	-0.7236328125	-7.311668003142106	0	-23.674011	-90.156555	34.077454	134.61548	-98.41608	-6.437855
1448009458722	0.7894134521484375	6.71710205078125	0.203521728515625	-7.029904620336376	0	-15.724182	-88.80768	38.57727	128.80634	-103.467094	-13.098249
1448009458763	-1.3612518310546875	4.452178955078125	-2.408935546875	-8.980772186743243	0	-14.823914	-87.457275	39.328003	122.37497	-107.01177	-14.616593
1448009458803	-0.0960845947265625	4.373626708984375	-1.84954833984375	-8.248397903218564	0	-14.524841	-86.257935	39.027405	116.34976	-109.185394	-16.452
1448009458844	-0.4840850830078125	4.03680419921875	-2.53509521484375	-8.797826536150366	0	-14.974976	-86.55701	38.427734	115.200195	-109.10603	-16.282742
1448009458884	-1.9611053466796875	3.83209228515625	-5.11065673828125	NaN	0	-17.52472	-87.60681	36.328125	113.55798	-107.54486	-14.978849
1448009458924	-2.6930694580078125	17.948883056640625	-4.81549072265625	-6.5754511523025485	0	-24.57428	-88.50708	32.12738	113.160706	-102.643654	-9.866119
1448009458965	-4.8996734619140625	13.32501220703125	-2.976654052734375	-7.472358218953569	0	-23.825073	-87.30774	33.477783	113.73306	-102.089325	-9.086732
1448009459005	-4.7877960205078125	5.630462646484375	-6.218719482421875	NaN	0	-18.424988	-84.60693	35.12726	111.193115	-103.87152	-11.4020815
1448009459045	-1.9611053466796875	9.66876220703125	-2.05902099609375	-7.42991410063134	0	-17.224121	-84.00726	33.77838	111.08603	-103.49679	-12.411623
1448009459085	7.1116790771484375	9.45452880859375	-5.58197021484375	-6.492352322034691	0	-22.024536	-79.50745	32.878113	115.98697	-98.89499	-8.744129
1448009459126	-1.9872894287109375	7.5240478515625	0.87835693359375	-7.273792199071293	0	-21.124268	-80.10712	32.278442	117.20502	-98.18707	-7.493128
1448009459166	1.0262603759765625	11.58734130859375	3.49676513671875	-5.79282785633152	0	-25.17395	-77.70691	27.17743	117.952545	-95.395035	-5.5591264
1448009459206	-0.8292388916015625	9.56878662109375	-0.7188720703125	-6.974520259035828	0	-26.223755	-77.70691	25.227356	117.89105	-92.7157	-3.752379
1448009459247	0.7144317626953125	9.170074462890625	1.703155517578125	-6.402534527191925	0	-27.275085	-76.80664	23.57788	118.012085	-91.59397	-3.0257905
1448009459287	-0.2353363037109375	7.36456298828125	1.084259033203125	-6.94068204622438	0	-30.4245	-74.10736	20.72754	117.13562	-89.17558	-0.6310266
1448009459328	0.3716583251953125	8.166748046875	0.6474609375	-6.775780422794799	0	-32.67517	-72.30682	18.777466	116.63321	-87.47247	1.1370636
1448009459368	-0.4198150634765625	9.091522216796875	1.2615966796875	-6.654885572421287	0	-33.87451	-72.00775	17.578125	115.99609	-85.23782	3.0284302
1448009459409	-0.8625640869140625	8.74755859375	0.59033203125	-6.895358591582289	0	-36.125183	-69.607544	14.877319	115.07068	-83.062515	4.426925
1448009459449	-0.5602569580078125	9.49737548828125	1.269927978515625	-6.611753132184726	0	-37.924194	-67.80701	13.078308	114.04898	-80.956604	6.228959
1448009459490	0.6454010009765625	10.107940673828125	0.977142333984375	-6.381620582720377	0	-41.075134	-64.956665	11.727905	113.06012	-79.63525	8.122829
1448009459533	0.6085052490234375	10.819671630859375	1.7471923828125	-6.176810851482511	0	-42.274475	-63.757324	11.578369	112.905945	-79.09493	8.92528
1448009459573	-0.4150543212890625	12.031280517578125	1.388946533203125	-6.200331467362394	0	-44.075012	-59.857178	11.877441	112.55969	-78.65908	10.3613405
1448009459613	1.5356597900390625	13.517822265625	2.1947021484375	-5.653506670432078	0	-43.32428	-57.307434	13.978577	113.160065	-80.35133	10.312549
1448009459654	2.5092315673828125	12.3466796875	1.6805419921875	-5.740096188730384	0	-41.82434	-55.656433	17.877197	114.652374	-84.21765	8.494495
1448009459694	4.6230010986328125	11.600433349609375	-1.98760986328125	-6.033560829124491	0	-38.674927	-53.707886	23.127747	116.54266	-90.329254	5.150628
1448009459734	3.1019439697265625	11.575439453125	-0.512969970703125	-5.4032685336066635	0	-35.97412	-52.656555	27.328491	119.32025	-95.13534	1.5657188
1448009459775	-1.2660369873046875	10.99224853515625	-2.3280029296875	-7.0866351807120616	0	-30.725098	-53.707886	30.778503	122.99518	-98.01996	-2.3645723
1448009459815	-1.1065521240234375	8.429779052734375	0.203521728515625	-7.063107944748779	0	-26.374817	-54.907227	32.278442	122.40726	-102.38351	-9.237597
1448009459855	0.5918426513671875	5.856597900390625	0.6474609375	-7.087510469297385	0	-24.874878	-54.907227	31.828308	120.88516	-103.66422	-11.230701
1448009459895	-2.3038787841796875	3.409576416015625	-2.712432861328125	NaN	0	-25.775146	-56.8573	30.627441	112.60535	-107.73116	-15.189541
1448009459936	-0.4721832275390625	3.569061279296875	-1.945953369140625	-8.73378842166148	0	-26.374817	-59.55658	27.928162	107.98578	-108.882225	-16.117882
1448009459976	-0.9756317138671875	3.238189697265625	-3.246826171875	NaN	0	-26.67389	-59.70764	26.727295	105.7359	-108.05057	-15.8419895
1448009460016	-1.4564666748046875	6.5576171875	-3.845489501953125	-8.68603719018424	0	-29.974365	-60.906982	23.428345	104.480225	-105.34217	-13.846843
1448009460057	-0.7590179443359375	10.585205078125	-3.1563720703125	-7.224001490073116	0	-31.62384	-61.506653	21.478271	104.43118	-103.60707	-12.066193
1448009460097	-5.8696746826171875	21.58251953125	-3.32061767578125	-6.286340467969504	0	-36.125183	-60.157776	18.327332	103.48782	-102.46221	-10.162385
1448009460137	-5.8613433837890625	11.778961181640625	-8.25750732421875	NaN	0	-35.37445	-63.30719	17.12799	100.174835	-104.30129	-11.156728
1448009460178	8.460159301757813	14.68182373046875	3.443206787109375	-4.650517202048056	0	-35.67505	-64.20746	16.377258	100.015015	-103.51536	-11.133833
1448009460218	-0.6876068115234375	1.431488037109375	-0.3427734375	-9.173269290113026	0	-32.824707	-66.7572	15.028381	102.280975	-100.773636	-11.7682905
1448009460259	0.0514984130859375	5.1531982421875	-1.039031982421875	-7.765603999795305	0	-35.67505	-65.55786	13.6779785	102.46503	-99.9397	-10.875325
1448009460299	-1.6861724853515625	14.111724853515625	2.2232666015625	-5.979222442229331	0	-38.674927	-64.956665	11.578369	105.877686	-96.69962	-7.2514586
1448009460340	-3.5154876708984375	9.4664306640625	-1.234222412109375	-7.634798770362561	0	-38.824463	-65.4068	10.377502	107.371185	-93.38519	-4.8409853
1448009460380	0.2240753173828125	8.1572265625	1.929290771484375	-6.595588842846043	0	-40.625	-65.25726	7.6782227	106.750946	-91.45219	-3.5662622
1448009460420	-0.7804412841796875	7.568084716796875	0.80218505859375	-6.899449706817957	0	-42.42401	-65.25726	4.3777466	105.75003	-89.58163	-1.8973141
1448009460461	0.5001983642578125	8.605926513671875	1.131866455078125	-6.606913869610362	0	-44.82422	-63.757324	1.5274048	104.09552	-87.060486	0.7938146
1448009460502	0.1145782470703125	8.74993896484375	1.075927734375	-6.6537528825061845	0	-47.224426	-64.20746	-0.42266846	103.16226	-85.17177	2.7696564
1448009460542	-0.3900604248046875	8.722564697265625	0.282073974609375	-6.871539822240383	0	-47.224426	-64.50653	-1.7715454	102.56561	-84.08156	3.6336868
1448009460583	-1.3422088623046875	9.629486083984375	1.3377685546875	-6.7041742109814795	0	-50.67444	-62.40692	-6.121826	100.802124	-80.794754	6.2487693
1448009460624	0.4656829833984375	10.512603759765625	1.4520263671875	-6.280935082519672	0	-52.02484	-61.657715	-8.221436	99.395325	-78.97318	7.792037
1448009460664	0.0503082275390625	10.653045654296875	2.60650634765625	-6.158331886292869	0	-53.52478	-61.05652	-8.372498	98.6521	-78.153915	8.96633
1448009460705	-0.8423309326171875	11.847991943359375	1.324676513671875	-6.295141966018379	0	-54.273987	-61.20758	-8.372498	98.19833	-78.2035	9.747027
1448009460745	-0.6721343994140625	12.997711181640625	2.802886962890625	-5.917067413027988	0	-53.674316	-62.10785	-7.322693	98.27252	-78.68999	9.829914
1448009460786	2.7234649658203125	12.771575927734375	1.932861328125	-5.631926093970969	0	-49.324036	-64.50653	-0.5722046	99.43054	-83.13213	7.7695794
1448009460826	4.6932220458984375	10.581634521484375	-1.862640380859375	-6.144330732657218	0	-44.525146	-67.20734	6.92749	100.96576	-88.952805	4.821308
1448009460867	4.3087921142578125	12.30859375	1.431793212890625	-5.558167456443678	0	-39.274597	-69.00787	14.727783	103.805786	-94.332756	1.4110769
1448009460907	-0.7733001708984375	11.631378173828125	-2.714813232421875	-6.9529593830848615	0	-33.424377	-70.35675	20.127869	107.92932	-97.245186	-2.3184044
1448009460949	-2.0313262939453125	12.197906494140625	-1.34967041015625	-6.83727182850412	0	-29.974365	-70.05768	22.827148	109.315674	-98.55157	-4.430616
1448009460989	-1.3921966552734375	8.8427734375	-0.32373046875	-7.1369846131930235	0	-24.124146	-70.35675	25.527954	109.05682	-101.431496	-9.073443
1448009461030	-1.3564910888671875	4.46051025390625	-1.76385498046875	-8.648945394960002	0	-20.825195	-71.406555	26.727295	100.68921	-106.92658	-14.968109
1448009461071	-0.3710174560546875	3.892791748046875	-0.8902587890625	-8.184405343699565	0	-21.424866	-70.35675	25.978088	98.32733	-107.85953	-15.466138
1448009461111	0.3204803466796875	3.730926513671875	-2.895721435546875	-8.73157189580705	0	-21.723938	-71.25702	24.777222	94.75668	-108.70747	-15.7029705
1448009461151	-1.5683441162109375	3.72259521484375	-4.03472900390625	NaN	0	-22.024536	-72.457886	23.727417	92.377655	-107.67056	-14.948599
1448009461192	-2.7692413330078125	13.390472412109375	-5.687896728515625	-7.585488937809291	0	-27.124023	-73.50769	17.428589	90.22241	-103.07555	-10.441367
1448009461232	-4.1760406494140625	18.672515869140625	0.97119140625	-5.873704549320365	0	-29.974365	-73.20709	16.677856	89.81598	-101.65054	-8.666428
1448009461272	-4.0713043212890625	10.16387939453125	-6.330596923828125	NaN	0	-28.775024	-72.906494	18.02826	89.4104	-102.09462	-9.300086
1448009461313	-1.2481842041015625	9.548553466796875	-6.085418701171875	-8.318329002659986	0	-27.574158	-72.60742	17.727661	87.14868	-103.80701	-11.229494
1448009461353	6.9391021728515625	8.234588623046875	1.20684814453125	-5.759312150040513	0	-28.024292	-72.75696	16.52832	91.440735	-99.72291	-10.205245
1448009461393	-0.7066497802734375	7.61212158203125	1.748382568359375	-6.864856576430026	0	-27.874756	-71.70715	16.227722	93.98685	-97.54431	-9.471327
1448009461434	0.4918670654296875	11.29931640625	3.00640869140625	-5.959836144096451	0	-30.123901	-71.406555	14.727783	96.92401	-94.5312	-7.522419
1448009461476	-0.8887481689453125	9.131988525390625	-0.1285400390625	-6.957968694024652	0	-31.774902	-70.35675	13.6779785	98.17816	-91.458954	-6.016242
1448009461516	1.2809600830078125	8.84039306640625	1.986419677734375	-6.326977487837446	0	-35.523987	-68.85681	11.727905	99.27109	-88.98692	-2.435626
1448009461557	0.4287872314453125	8.46429443359375	0.636749267578125	-6.719557575183458	0	-37.324524	-67.35687	10.07843	99.81561	-87.03676	-0.4844745
1448009461597	0.9774627685546875	8.191741943359375	1.324676513671875	-6.567173935774125	0	-38.523865	-66.90674	9.327698	100.06055	-85.4643	0.91797405
1448009461638	0.4109344482421875	9.346221923828125	1.5567626953125	-6.442983037951138	0	-40.023804	-65.10773	8.728027	100.97012	-83.964134	2.2461278
1448009461679	-1.6111907958984375	8.962982177734375	-1.5091552734375	-7.389445452107284	0	-41.82434	-65.4068	8.877563	102.10562	-82.387695	3.3158395
1448009461719	-1.9027862548828125	8.991546630859375	1.2235107421875	-6.923499044749896	0	-42.274475	-65.10773	7.977295	102.942474	-80.92912	4.5221705
1448009461760	0.3859405517578125	9.158172607421875	1.73052978515625	-6.571217929277179	0	-44.674683	-63.30719	6.777954	102.93729	-78.60089	6.8563957
1448009461801	-0.3198394775390625	10.576873779296875	1.92333984375	-6.316560724360281	0	-46.624756	-61.506653	7.2280884	103.15344	-77.71265	8.443152
1448009461841	-1.3826751708984375	10.786346435546875	1.9757080078125	-6.433266445122727	0	-48.124695	-60.60791	7.3776245	103.42401	-77.33615	9.025715
1448009461881	-0.2341461181640625	12.75848388671875	1.96380615234375	-6.000270544882059	0	-48.8739	-59.257507	8.427429	104.55945	-77.60997	9.83328
1448009461922	0.5025787353515625	11.3802490234375	1.17828369140625	-6.192584027401745	0	-48.423767	-58.35724	12.477112	106.09091	-80.32375	9.5633955
1448009461962	3.8577117919921875	11.499267578125	0.101165771484375	-5.874915228607263	0	-47.224426	-56.407166	18.02826	107.91943	-85.49176	7.6730046
1448009462003	3.6875152587890625	14.152191162109375	-1.000946044921875	-5.7030941359885245	0	-44.973755	-55.656433	24.177551	109.30133	-91.571205	4.150204
1448009462043	2.4092559814453125	12.23004150390625	0.258270263671875	-5.946863253922174	0	-41.22467	-57.006836	29.4281	111.80707	-95.330795	0.2983133
1448009462084	-2.0551300048828125	11.157684326171875	-2.207794189453125	-7.180812473973582	0	-36.424255	-58.207703	32.878113	114.51874	-97.61569	-4.001811
1448009462126	-1.5147857666015625	8.6571044921875	0.06427001953125	-7.122090967585098	0	-31.62384	-60.60791	34.077454	113.568695	-99.817276	-8.908435
1448009462167	-0.4138641357421875	6.506439208984375	2.0804443359375	-6.947750684422195	0	-31.173706	-61.506653	33.927917	110.06363	-101.94354	-12.6591015
1448009462207	1.3190460205078125	4.3248291015625	0.524871826171875	-7.32290377295407	0	-32.225037	-62.857056	32.12738	104.1557	-104.72358	-14.670827
1448009462248	1.6296844482421875	3.82733154296875	0.191619873046875	-7.42991410063134	0	-34.324646	-64.956665	30.477905	100.932465	-106.24462	-15.239547
1448009462288	0.1038665771484375	3.709503173828125	-2.950469970703125	-8.87767600942088	0	-35.224915	-65.25726	28.977966	94.99957	-108.40179	-15.759736
1448009462329	-1.1648712158203125	5.511444091796875	-4.569122314453125	NaN	0	-42.12494	-67.507935	21.028137	90.54068	-106.415955	-14.150962
1448009462369	-1.8980255126953125	13.176239013671875	-6.44842529296875	-7.608922087291267	0	-45.124817	-68.107605	18.327332	88.50369	-103.41634	-10.395515
1448009462409	-6.4659576416015625	19.453277587890625	-1.415130615234375	-6.40480792360046	0	-47.824097	-67.65747	16.078186	86.81311	-102.2901	-8.186861
1448009462449	-4.6283111572265625	8.513092041015625	-7.80999755859375	NaN	0	-45.274353	-71.70715	16.978455	86.00665	-103.817635	-10.510479
1448009462490	5.0597991943359375	12.726348876953125	2.160186767578125	-5.340468022676984	0	-44.82422	-72.60742	15.777588	86.11401	-102.62966	-11.606059
1448009462530	-0.7744903564453125	6.289825439453125	0.258270263671875	-7.403767224570197	0	-45.874023	-70.95795	16.978455	91.07355	-99.520874	-9.713849
1448009462570	-0.9089813232421875	8.210784912109375	1.672210693359375	-6.810934083675791	0	-47.07489	-71.406555	17.578125	93.28189	-98.334946	-9.131329
1448009462611	1.3166656494140625	10.929168701171875	4.2799072265625	-5.741413463425271	0	-49.1745	-71.10748	15.927124	97.42456	-94.498276	-6.6020937
1448009462651	0.9179534912109375	8.882049560546875	0.048797607421875	-6.69574578605334	0	-51.574707	-71.10748	14.128113	99.20999	-91.383224	-4.054734
1448009462691	1.7820281982421875	8.73089599609375	1.0997314453125	-6.398865321412414	0	-54.273987	-70.207214	12.028503	100.83984	-88.17122	-1.5586382
1448009462732	0.4061737060546875	7.549041748046875	0.777191162109375	-6.8515354294345885	0	-55.32379	-69.306946	11.277771	100.81271	-86.40623	-0.29412803
1448009462772	-0.1294097900390625	8.289337158203125	1.8662109375	-6.64019220793277	0	-56.674194	-69.306946	9.927368	101.12982	-85.35317	0.40038553
1448009462812	-0.9518280029296875	8.8427734375	-0.194000244140625	-7.032263107978829	0	-58.47473	-69.15741	8.728027	101.95181	-82.35493	2.7041912
1448009462853	-0.7780609130859375	9.003448486328125	0.862884521484375	-6.791923882284108	0	-59.375	-69.15741	8.128357	102.16791	-81.487434	3.5070994
1448009462893	-0.6471405029296875	9.89727783203125	1.133056640625	-6.584303618577806	0	-63.57422	-66.30707	5.4275513	102.23001	-78.480515	5.9604664
1448009462933	0.4621124267578125	10.813720703125	1.742431640625	-6.1985167456240955	0	-67.17377	-66.15753	5.7281494	102.249664	-77.18872	7.8331547
1448009462974	-0.9518280029296875	10.73040771484375	2.026885986328125	-6.370691721503295	0	-67.474365	-64.80713	6.0272217	102.47885	-76.62122	9.288557
1448009463014	-0.5697784423828125	12.233612060546875	2.4613037109375	-6.048257635459276	0	-69.12384	-65.55786	7.0785522	103.20715	-76.9352	9.887021
1448009463054	1.5677947998046875	13.841552734375	2.28277587890625	-5.600399408838667	0	-66.874695	-66.607666	13.978577	104.163635	-78.992584	9.382248
1448009463095	2.0141143798828125	12.086029052734375	1.22589111328125	-5.891752040513139	0	-62.524414	-69.45648	20.428467	105.60675	-83.27345	7.1316624
1448009463135	5.4406585693359375	11.899169921875	-1.869781494140625	-5.873401937726716	0	-58.924866	-69.75708	24.928284	107.34943	-89.41749	4.1757236
1448009463175	3.0281524658203125	11.1326904296875	2.27325439453125	-5.752700976832419	0	-50.224304	-70.50781	32.728577	110.694244	-93.91543	0.9316378
1448009463215	-2.1420135498046875	12.2181396484375	-0.474884033203125	-6.70801289207005	0	-42.874146	-72.75696	41.877747	114.417786	-96.58231	-2.831759
1448009463256	-0.7780609130859375	9.022491455078125	-1.169952392578125	-7.146810882529582	0	-37.924194	-74.2569	43.377686	114.44391	-99.53076	-7.483078
1448009463296	-0.6269073486328125	7.0146484375	1.477020263671875	-7.002181815681002	0	-35.67505	-74.85657	43.82782	111.40573	-102.498344	-11.495186
1448009463336	-0.1091766357421875	4.259368896484375	-2.376800537109375	-8.474912452700405	0	-34.924316	-74.85657	42.778015	105.851715	-105.74191	-14.279962
1448009463377	-0.7447357177734375	4.078460693359375	-2.03521728515625	-8.776230762007346	0	-35.37445	-77.256775	41.278076	100.30371	-108.03282	-15.871962
1448009463417	-0.6780853271484375	3.519073486328125	-2.74932861328125	-9.503846724380333	0	-36.424255	-78.756714	38.728333	96.71576	-108.44333	-16.098974
1448009463457	-2.2050933837890625	7.225311279296875	-4.276336669921875	-8.944114507028704	0	-42.12494	-81.75659	31.677246	93.52374	-104.93155	-13.272556
1448009463497	-1.8170928955078125	19.10931396484375	-6.69598388671875	-6.551413802158594	0	-48.8739	-82.206726	27.627563	92.51532	-102.12623	-9.584606
1448009463538	-5.7113800048828125	20.6446533203125	-1.78765869140625	-6.180911841315715	0	-49.024963	-81.007385	27.627563	91.71518	-101.914116	-8.5258875
1448009463579	-5.3209991455078125	6.85040283203125	-7.147064208984375	NaN	0	-46.774292	-81.45752	29.127502	90.36456	-103.3376	-9.902725
1448009463619	0.2371673583984375	14.956756591796875	2.69219970703125	-5.577401061994533	0	-44.525146	-84.00726	28.227234	89.97717	-103.10081	-11.566398
1448009463659	-0.6245269775390625	5.0294189453125	-1.80194091796875	-8.193233628153639	0	-43.473816	-83.55713	28.527832	94.763794	-99.451256	-9.945226
1448009463700	-0.7935333251953125	8.836822509765625	2.498199462890625	-6.55983412493895	0	-44.674683	-82.95746	28.378296	97.46222	-97.541824	-8.560913
1448009463740	0.4478302001953125	12.50616455078125	4.617919921875	-5.61471323234375	0	-45.57495	-83.55713	25.978088	98.86041	-95.66833	-7.1128297
1448009463780	-1.5290679931640625	9.794921875	-0.672454833984375	-7.050987718155625	0	-49.324036	-81.75659	22.37854	99.598694	-92.50938	-4.4033165
1448009463821	1.1988372802734375	8.610687255859375	1.684112548828125	-6.331426910364076	0	-50.975037	-82.80792	20.428467	99.512665	-90.55965	-2.668731
1448009463861	-0.0901336669921875	7.87872314453125	-0.0999755859375	-7.033765008226857	0	-52.774048	-82.35779	18.62793	99.41409	-89.71381	-1.7185626
1448009463901	0.3228607177734375	8.760650634765625	0.93548583984375	-6.641320045180393	0	-56.82373	-80.70679	12.927246	97.32297	-86.44172	1.5017959
1448009463942	-0.1544036865234375	8.94512939453125	0.751007080078125	-6.717630465011682	0	-58.024597	-79.65698	10.977173	96.99451	-85.226006	2.3787692
1448009463982	-0.0663299560546875	8.78564453125	0.770050048828125	-6.717245187230885	0	-60.57434	-78.756714	7.827759	96.25195	-82.73552	3.9086273
1448009464022	-0.7459259033203125	9.6473388671875	2.05426025390625	-6.496664469242122	0	-64.775085	-76.057434	4.977417	95.42737	-79.27851	6.773321
1448009464062	0.4787750244140625	11.221954345703125	1.5281982421875	-6.169440722170021	0	-66.42456	-75.00763	4.0771484	95.13339	-77.65586	8.703242
1448009464103	-1.4624176025390625	11.167205810546875	3.08258056640625	-6.230656939153803	0	-67.474365	-74.2569	5.4275513	95.35635	-76.92676	9.937004
1448009464143	-1.4969329833984375	13.190521240234375	2.3375244140625	-6.060787315027827	0	-67.474365	-74.40643	5.5786133	95.45038	-77.17428	10.4525585
1448009464183	-0.2115325927734375	14.109344482421875	2.467254638671875	-5.761224055996734	0	-65.223694	-74.85657	8.578491	95.67313	-77.819916	10.272328
1448009464223	5.9036407470703125	10.253143310546875	-2.012603759765625	-6.045725062189442	0	-59.223938	-78.45764	18.478394	97.365814	-85.50656	5.8552556
1448009464264	6.2928314208984375	11.19696044921875	-2.1328125	-5.8878017951778645	0	-55.02472	-79.05731	23.57788	98.477295	-88.62606	4.389638
1448009464304	1.6403961181640625	11.11126708984375	1.7567138671875	-5.7216989453872245	0	-47.07489	-79.05731	32.278442	102.3183	-93.457825	0.97223014
1448009464345	-2.0967864990234375	10.372161865234375	-0.92596435546875	-7.095620285811384	0	-35.67505	-80.10712	41.427612	106.83923	-98.13882	-5.006816
1448009464386	-1.3731536865234375	8.236968994140625	0.733154296875	-7.050339924373574	0	-30.574036	-80.407715	43.678284	105.269806	-101.49594	-9.516657
1448009464427	0.4561614990234375	6.0577392578125	-0.71173095703125	-7.397830646200287	0	-29.374695	-80.10712	45.32776	101.30286	-104.5473	-12.461553
1448009464467	-0.2555694580078125	4.015380859375	-2.06854248046875	-8.506112045077526	0	-29.673767	-79.95758	44.877625	95.71417	-107.60941	-14.06214
1448009464508	-0.5590667724609375	3.983245849609375	-3.62054443359375	NaN	0	-30.574036	-79.95758	43.377686	90.89838	-109.316765	-14.64773
1448009464548	-1.2874603271484375	3.3060302734375	-3.80859375	NaN	0	-30.874634	-82.05719	42.178345	89.46951	-109.18038	-14.572036
1448009464589	-1.9670562744140625	6.95751953125	-5.092803955078125	NaN	0	-35.824585	-84.4574	35.12726	87.51843	-105.277145	-12.379346
1448009464630	-3.0441741943359375	20.1114501953125	-5.92236328125	-6.468200275622081	0	-40.774536	-85.357666	31.828308	86.69318	-102.11525	-9.124669
1448009464671	-2.8394622802734375	11.83013916015625	-5.91046142578125	-8.05154574041098	0	-39.274597	-84.1568	33.927917	86.68994	-102.10451	-8.742903
1448009464711	-2.4133758544921875	15.47210693359375	-1.872161865234375	-6.461967103273187	0	-36.424255	-84.90753	35.427856	85.9187	-103.5001	-10.399292
1448009464751	6.3428192138671875	14.8984375	3.055206298828125	-4.877455752496655	0	-35.97412	-84.30786	36.027527	86.95795	-102.86719	-10.376397
1448009464792	0.0395965576171875	5.251983642578125	0.360626220703125	-7.429163056378059	0	-32.374573	-84.90753	37.07733	92.93854	-99.627594	-9.637205
1448009464832	-0.9351654052734375	12.203857421875	5.130889892578125	-5.756960274150342	0	-33.424377	-85.206604	34.828186	98.15027	-96.218735	-7.716511
1448009464872	-1.2398529052734375	9.960357666015625	-0.239227294921875	-6.894336710765952	0	-34.924316	-85.5072	33.328247	100.299805	-92.49159	-4.580758
1448009464913	1.3833160400390625	7.549041748046875	0.570098876953125	-6.723994500582492	0	-37.77466	-85.65674	31.677246	100.44934	-90.69845	-2.4909742
1448009464953	-0.6840362548828125	7.87396240234375	0.439178466796875	-7.044516617070039	0	-40.174866	-85.8078	28.977966	101.000824	-88.65564	-0.5419648
1448009464994	-0.2103424072265625	8.046539306640625	1.77337646484375	-6.706668812980228	0	-43.32428	-85.206604	26.878357	100.61261	-85.87227	1.4535177
1448009465037	-0.4579010009765625	9.08795166015625	0.218994140625	-6.831865591720046	0	-44.973755	-85.95734	24.928284	100.51355	-83.74239	3.0671763
1448009465078	-1.0732269287109375	8.928466796875	-0.59271240234375	-7.111692308478764	0	-45.57495	-86.10687	24.028015	100.45853	-82.739716	3.8606064
1448009465118	-0.8173370361328125	8.833251953125	1.704345703125	-6.688866749685408	0	-48.724365	-85.65674	22.528076	100.173706	-80.87008	5.63154
1448009465160	-0.8363800048828125	10.157928466796875	1.133056640625	-6.573241822726862	0	-52.02484	-85.8078	20.277405	99.390656	-78.73444	7.346327
1448009465200	-0.2198638916015625	11.1231689453125	2.505340576171875	-6.144818243821348	0	-53.52478	-84.75647	21.478271	99.14874	-77.43335	9.085381
1448009465240	-1.6576080322265625	11.461181640625	1.353240966796875	-6.466418182314724	0	-53.37372	-84.90753	22.677612	99.27884	-77.315056	10.25154
1448009465281	-0.7364044189453125	13.761810302734375	2.96356201171875	-5.807979250853137	0	-53.52478	-83.706665	26.577759	99.78265	-78.35962	10.285275
1448009465321	2.2842864990234375	11.75634765625	1.491302490234375	-5.8655421920621595	0	-50.224304	-81.75659	33.77838	101.39139	-84.34961	9.034323
1448009465362	4.2909393310546875	12.671600341796875	-2.369659423828125	-5.986537140697363	0	-41.374207	-76.20697	48.327637	102.78418	-90.92416	4.5233564
1448009465402	2.6282501220703125	12.1895751953125	2.70648193359375	-5.620395603296876	0	-33.724976	-73.50769	55.377197	104.92847	-95.07142	1.3017327
1448009465442	-0.7399749755859375	11.617095947265625	-1.610321044921875	-6.762458096809905	0	-29.82483	-73.35663	57.777405	108.180115	-97.43461	-2.696225
1448009465483	-1.8575592041015625	9.036773681640625	-1.386566162109375	-7.39980787864226	0	-22.174072	-71.10748	62.27722	107.13858	-99.88421	-7.8735085
1448009465525	0.5132904052734375	6.654022216796875	1.08544921875	-7.024979698984162	0	-21.574402	-69.306946	63.17749	103.12454	-102.30664	-11.7663965
1448009465566	1.1131439208984375	4.70806884765625	-0.546295166015625	-7.509881122440305	0	-25.775146	-67.95654	62.27722	97.618805	-104.82895	-14.060428
1448009465606	-0.1056060791015625	4.064178466796875	-2.2518310546875	-8.500176893572448	0	-28.173828	-68.25714	61.37848	92.0376	-106.872765	-15.263822
1448009465647	-0.4340972900390625	3.56549072265625	-2.241119384765625	-8.863056652902706	0	-31.173706	-69.90662	60.028076	88.15936	-107.16403	-15.580065
1448009465687	-0.4043426513671875	7.420501708984375	-4.428680419921875	-8.198035845949775	0	-35.224915	-72.906494	57.0282	85.862305	-103.944336	-12.981035
1448009465727	-3.8594512939453125	19.579437255859375	-7.444610595703125	-6.929904783921151	0	-43.174744	-74.2569	53.12805	83.60062	-101.73188	-9.25756
1448009465771	-7.5609283447265625	21.1968994140625	-0.23565673828125	-6.1459560223569	0	-46.025085	-71.85669	53.727722	82.8111	-101.477486	-8.517698
1448009465811	-2.9096832275390625	14.80322265625	-3.30157470703125	-6.875394664019648	0	-44.973755	-70.65735	55.52826	81.79169	-103.2083	-11.256132
1448009465851	5.8845977783203125	14.374755859375	4.364410400390625	-4.844366224966226	0	-43.32428	-71.70715	55.22766	82.92609	-102.45582	-11.415762
1448009465892	0.0455474853515625	4.649749755859375	-0.408233642578125	-7.736077457588831	0	-39.424133	-72.30682	57.0282	88.19525	-99.270615	-10.613343
1448009465932	-0.4305267333984375	13.171478271484375	4.646484375	-5.63677555368503	0	-38.37433	-71.406555	57.777405	92.47687	-96.23769	-8.8570175
1448009465972	-0.3388824462890625	10.1519775390625	-0.54510498046875	-6.762262615230584	0	-41.075134	-72.906494	55.82733	94.88223	-92.51375	-5.8779125
1448009466013	0.5192413330078125	7.7716064453125	0.2808837890625	-6.878848035201271	0	-42.42401	-73.20709	54.777527	95.69559	-90.5509	-3.8695638
1448009466053	0.7977447509765625	9.5045166015625	2.20184326171875	-6.270485661597208	0	-43.92395	-74.10736	53.727722	97.00751	-88.31032	-1.8806717
1448009466093	-0.7126007080078125	7.175323486328125	0.677215576171875	-7.134533691973159	0	-46.92383	-73.057556	51.628113	96.04947	-86.88627	-0.46832737
1448009466133	0.3668975830078125	8.57855224609375	1.493682861328125	-6.575635331293502	0	-49.1745	-72.60742	51.028442	96.38464	-85.174614	1.0416338
1448009466174	-0.4555206298828125	8.9951171875	-0.058319091796875	-6.894336710765952	0	-51.42517	-73.20709	49.827576	96.411194	-83.35228	2.5569015
1448009466215	-1.1244049072265625	8.727325439453125	1.562713623046875	-6.779120164348994	0	-53.37372	-74.10736	48.477173	96.49689	-81.31202	4.060238
1448009466255	-1.3410186767578125	9.18792724609375	1.2711181640625	-6.786992950498618	0	-57.424927	-73.65723	47.277832	95.88788	-79.31987	5.910813
1448009466295	1.4249725341796875	10.8851318359375	1.5567626953125	-6.082775747241864	0	-60.273743	-72.30682	47.277832	95.56589	-77.71456	7.939579
1448009466336	-0.9780120849609375	11.048187255859375	2.305389404296875	-6.288707935823597	0	-62.374878	-70.35675	47.877502	95.50571	-77.05048	9.536552
1448009466376	-0.2484283447265625	12.502593994140625	2.57318115234375	-5.9559705966741205	0	-63.275146	-69.15741	50.727844	95.91934	-77.14776	10.27683
1448009466416	1.7760772705078125	13.58209228515625	2.06378173828125	-5.632638896450361	0	-61.325073	-67.20734	55.22766	97.13248	-79.212494	9.962175
1448009466457	4.9574432373046875	11.490936279296875	-2.10662841796875	-6.019549551612387	0	-56.074524	-60.906982	66.02783	99.98395	-86.63763	6.4533377
1448009466497	4.1743011474609375	13.371429443359375	0.70220947265625	-5.5348392314788315	0	-49.1745	-57.907104	72.62726	101.98331	-92.185234	3.1211538
1448009466538	2.6865692138671875	11.71112060546875	1.27825927734375	-5.847313562183245	0	-45.274353	-56.8573	75.4776	103.75708	-94.061584	1.3116542
1448009466579	-1.3981475830078125	11.33026123046875	-1.43060302734375	-6.890864994873987	0	-38.674927	-54.60663	79.07715	107.063416	-96.71069	-2.4805005
1448009466619	-0.9601593017578125	7.78826904296875	0.47369384765625	-7.104415034297765	0	-37.023926	-53.556824	79.82788	105.7659	-100.87565	-9.204062
1448009466659	0.1717071533203125	6.080352783203125	0.124969482421875	-7.2813219125519435	0	-39.874268	-52.807617	78.02734	101.75369	-103.50427	-12.488963
1448009466700	-0.4924163818359375	3.87969970703125	-1.7376708984375	-8.522227613673584	0	-44.82422	-54.006958	74.87793	96.045654	-106.09481	-14.498394
1448009466740	-0.7721099853515625	3.973724365234375	-2.043548583984375	-8.730465344904069	0	-47.373962	-56.25763	73.52753	93.417114	-106.914215	-15.155271
1448009466780	-1.3433990478515625	3.328643798828125	-3.59912109375	NaN	0	-50.67444	-59.857178	70.97778	88.73453	-106.64181	-15.33291
1448009466821	-1.5183563232421875	7.2384033203125	-4.81787109375	-8.856770592516575	0	-60.124207	-63.30719	64.97803	86.92084	-104.34353	-13.089173
1448009466861	-2.6787872314453125	19.139068603515625	-6.332977294921875	-6.624257454460874	0	-66.42456	-63.00659	62.127686	85.043304	-102.17165	-9.44841
1448009466901	-4.4438323974609375	11.605194091796875	-3.9466552734375	-8.01363976036878	0	-65.97443	-63.90686	62.127686	83.44	-102.54393	-9.330052
1448009466942	-2.2300872802734375	8.68804931640625	-6.518646240234375	NaN	0	-66.12396	-65.25726	61.828613	81.26605	-104.209335	-11.693564
1448009466982	0.1812286376953125	14.430694580078125	-0.599853515625	-6.063330078908489	0	-65.374756	-67.65747	61.37848	81.33307	-103.63523	-12.131493
1448009467023	-1.1898651123046875	6.147003173828125	-0.74267578125	-7.572399149050646	0	-62.67395	-67.0578	64.82849	87.37512	-99.488266	-9.685408
1448009467063	-0.1115570068359375	9.271240234375	2.74456787109375	-6.356346226922893	0	-61.024475	-67.80701	65.5777	91.09967	-97.18979	-8.371506
1448009467103	-0.9815826416015625	10.698272705078125	2.783843994140625	-6.268130385616677	0	-64.775085	-67.80701	63.328552	93.008606	-93.773346	-5.3483057
1448009467144	0.6299285888671875	8.158416748046875	-0.45703125	-6.920198418980119	0	-66.874695	-67.20734	61.227417	93.045654	-91.617485	-2.7847297
1448009467184	1.8355865478515625	8.477386474609375	3.207550048828125	-6.1295736101995315	0	-68.82477	-68.707275	60.47821	93.477844	-90.63186	-1.6273576
1448009467224	0.0753021240234375	7.9287109375	1.181854248046875	-6.775780422794799	0	-73.62518	-68.707275	55.52826	92.26816	-88.18348	1.0541029
1448009467265	-0.2008209228515625	8.939178466796875	1.181854248046875	-6.656963228562349	0	-76.62506	-69.00787	52.978516	92.13629	-86.04267	2.5877132
1448009467308	-0.2424774169921875	9.05462646484375	1.285400390625	-6.628935851843911	0	-79.47388	-69.90662	49.97711	91.28845	-82.98846	4.664035
1448009467348	-0.6899871826171875	8.946319580078125	1.65911865234375	-6.616972856668578	0	-81.72455	-70.207214	48.477173	90.94437	-82.05142	5.4007955
1448009467389	-0.0603790283203125	9.76873779296875	1.895965576171875	-6.40008795087698	0	-87.423706	-69.45648	45.02716	89.68439	-79.25966	7.8212996
1448009467429	0.5918426513671875	10.64947509765625	1.04974365234375	-6.353587682126978	0	-87.87384	-69.00787	44.128418	89.4046	-78.65776	8.573398
1448009467469	-0.8518524169921875	11.500457763671875	1.6805419921875	-6.295311441811256	0	-90.42511	-69.306946	42.92755	88.92789	-77.54106	9.910246
1448009467509	0.1514739990234375	13.6082763671875	2.224456787109375	-5.8085745932122546	0	-90.72418	-69.90662	44.277954	88.778534	-77.975685	10.087471
1448009467550	0.8215484619140625	12.809661865234375	3.23492431640625	-5.699760017293747	0	-88.17444	-70.207214	48.1781	89.417145	-80.37345	9.430685
1448009467590	2.1938323974609375	10.243621826171875	0.999755859375	-6.140919969909019	0	-85.3241	-67.0578	55.22766	90.31964	-85.21636	7.4351645
1448009467631	4.3706817626953125	12.42999267578125	-1.348480224609375	-5.875672092512101	0	-79.62494	-65.4068	62.127686	91.1662	-91.76549	4.746135
1448009467671	2.8115386962890625	11.8372802734375	1.742431640625	-5.757989051742367	0	-75.87433	-65.4068	65.12756	92.9216	-96.273865	1.3967173
1448009467712	-1.6683197021484375	11.50640869140625	-1.22589111328125	-6.871945356608965	0	-65.97443	-66.30707	71.12732	96.11133	-98.56928	-2.553058
1448009467752	-2.1955718994140625	8.56427001953125	-0.66888427734375	-7.419171709396607	0	-59.97467	-71.10748	69.92798	94.674225	-100.90547	-7.7411237
1448009467792	-0.5126495361328125	6.57427978515625	1.481781005859375	-7.060072873812674	0	-59.674072	-74.557495	65.5777	89.8696	-103.36721	-11.588437
1448009467832	0.7751312255859375	4.8485107421875	-1.646026611328125	-7.81220401212665	0	-61.17401	-75.00763	63.627625	83.42404	-106.44977	-13.634621
1448009467873	-0.2627105712890625	4.26531982421875	-2.905242919921875	-8.759047455729398	0	-61.924744	-78.45764	58.22754	77.461365	-108.526794	-14.693478
1448009467913	-0.2472381591796875	3.901123046875	-1.969757080078125	-8.508860500864218	0	-63.424683	-81.90765	54.177856	73.84338	-108.42811	-15.026088
1448009467954	-0.8470916748046875	7.07177734375	-6.5126953125	NaN	0	-66.874695	-85.65674	46.827698	71.509094	-105.2387	-12.886235
1448009467994	-4.9984588623046875	19.798431396484375	-3.624114990234375	-6.463568809008011	0	-72.87445	-84.90753	39.927673	69.35385	-102.652985	-9.677894
1448009468034	-6.7968292236328125	20.781524658203125	-0.904541015625	-6.189950387590012	0	-73.62518	-85.05707	40.07721	69.11853	-102.21177	-9.041926
1448009468074	-5.3329010009765625	7.68353271484375	-8.274169921875	NaN	0	-68.974304	-87.00714	41.877747	68.70447	-103.52632	-10.927691
1448009468115	4.7313079833984375	14.46044921875	2.65887451171875	-5.132134071803796	0	-66.12396	-88.50708	39.6286	68.71442	-102.43884	-12.251097
1448009468155	-0.8697052001953125	4.9913330078125	0.774810791015625	-7.593810222675273	0	-63.124084	-86.10687	43.078613	73.96826	-99.190834	-10.280316
1448009468195	-0.1246490478515625	10.5233154296875	3.608642578125	-6.0639660398108735	0	-62.524414	-84.60693	43.078613	78.49637	-96.29939	-8.639086
1448009468236	-0.3841094970703125	10.248382568359375	2.174468994140625	-6.336910955513493	0	-63.723755	-84.60693	41.877747	80.81781	-92.75013	-5.4426513
1448009468276	0.1252899169921875	8.605926513671875	0.67364501953125	-6.7398653440189324	0	-67.77496	-82.65686	37.9776	81.53363	-90.46278	-3.1311576
1448009468316	1.3071441650390625	8.503570556640625	2.666015625	-6.335024837851654	0	-68.2251	-82.35779	37.07733	81.92609	-89.34893	-2.1211967
1448009468357	-0.1472625732421875	7.670440673828125	0.95928955078125	-6.89413237762766	0	-70.62378	-80.407715	34.37805	81.22504	-87.74459	-0.34411556
1448009468397	0.0943450927734375	9.036773681640625	1.3948974609375	-6.562217742103812	0	-72.12372	-79.95758	30.627441	81.09024	-84.95407	1.8442614
1448009468438	-0.4483795166015625	8.947509765625	-0.589141845703125	-6.994129839568015	0	-72.57385	-80.407715	29.577637	81.177734	-82.869	3.2921557
1448009468478	-0.3507843017578125	8.882049560546875	0.746246337890625	-6.760699214242248	0	-74.22485	-79.05731	27.778625	81.21356	-81.87525	4.035962
1448009468519	-0.8232879638671875	8.479766845703125	1.35443115234375	-6.867892531245401	0	-76.32446	-77.70691	25.07782	80.82489	-79.911095	5.592724
1448009468559	0.7727508544921875	10.824432373046875	1.712677001953125	-6.158331886292869	0	-78.274536	-75.9079	23.428345	80.302704	-77.418655	8.108937
1448009468601	-0.9173126220703125	10.861328125	2.386322021484375	-6.295141966018379	0	-79.62494	-74.557495	23.878479	80.25781	-77.11038	9.422333
1448009468641	-0.2996063232421875	11.918212890625	2.214935302734375	-6.087253031765227	0	-77.97394	-74.10736	26.727295	80.661316	-77.71927	9.882824
1448009468684	2.0391082763671875	12.907257080078125	0.770050048828125	-5.842206552664905	0	-76.32446	-73.057556	29.278564	81.828186	-80.38659	9.31573
1448009468724	3.2828521728515625	13.32977294921875	0.877166748046875	-5.624520150198326	0	-70.62378	-72.00775	37.828064	83.404724	-85.327934	7.0192456
1448009468765	3.5613555908203125	13.454742431640625	1.6138916015625	-5.49035283098576	0	-59.674072	-70.207214	50.27771	86.41611	-93.90803	1.7388711
1448009468805	0.2097930908203125	11.67779541015625	-0.796234130859375	-6.47623149634801	0	-50.524902	-68.25714	56.12793	90.02106	-96.79274	-1.8132279
1448009468845	-3.0048980712890625	11.8468017578125	-0.9569091796875	-6.998576761699445	0	-46.92383	-69.75708	57.777405	90.726746	-97.98506	-4.0339837
1448009468886	-0.4329071044921875	6.492156982421875	0.51177978515625	-7.243198029359043	0	-42.274475	-68.107605	58.528137	86.96304	-102.8836	-10.415943
1448009468926	0.8453521728515625	5.166290283203125	0.2427978515625	-7.305712096151211	0	-42.274475	-67.507935	57.32727	82.53183	-105.81849	-13.022204
1448009468968	-0.0068206787109375	3.992767333984375	-2.043548583984375	-8.412900580724429	0	-44.22455	-68.40668	55.078125	77.01312	-108.54999	-14.237522
1448009469008	-0.7685394287109375	3.647613525390625	-2.886199951171875	NaN	0	-45.874023	-70.05768	51.927185	72.429565	-109.863914	-14.683496
1448009469049	-1.4302825927734375	3.578582763671875	-4.190643310546875	NaN	0	-46.92383	-70.65735	50.87738	71.04242	-109.62871	-14.566884
1448009469089	-1.1125030517578125	8.261962890625	-5.806915283203125	-8.64791775034565	0	-52.774048	-73.35663	44.128418	69.342316	-105.377846	-11.51054
1448009469129	-2.7847137451171875	22.785797119140625	-5.0511474609375	-5.940085301581547	0	-58.325195	-72.30682	40.678406	68.31061	-102.43568	-7.720773
1448009469170	-3.0358428955078125	10.31146240234375	-6.604339599609375	-8.987283268066273	0	-56.52466	-72.00775	41.877747	66.997986	-103.35635	-8.045612
1448009469210	-1.4897918701171875	9.9615478515625	-7.123260498046875	-8.645352617484784	0	-54.574585	-73.50769	41.877747	64.835846	-105.21953	-10.144265
1448009469250	6.8010406494140625	13.66778564453125	1.924530029296875	-5.74082795531575	0	-53.224182	-73.50769	42.027283	65.0354	-104.90416	-10.418482
1448009469291	-0.9327850341796875	5.337677001953125	-0.989044189453125	-7.958398772232766	0	-49.77417	-72.60742	44.877625	70.88281	-101.334335	-9.510185
1448009469331	-1.7718658447265625	9.105804443359375	2.326812744140625	-6.69842507847878	0	-49.024963	-72.75696	45.02716	74.224915	-99.00329	-8.735295
1448009469371	-1.0934600830078125	11.12554931640625	1.46630859375	-6.415671244165038	0	-52.02484	-72.15729	43.377686	76.42282	-95.68369	-6.167747
1448009469412	0.4454498291015625	8.242919921875	-0.46417236328125	-6.938813852517013	0	-52.62451	-72.00775	41.72821	77.02646	-93.52759	-3.8706865
1448009469452	-0.4614715576171875	8.627349853515625	-0.548675537109375	-7.046671964925704	0	-54.72412	-71.55762	39.778137	77.59674	-90.067	-0.78710335
1448009469492	-0.7852020263671875	7.451446533203125	1.650787353515625	-6.922673534163611	0	-57.273865	-72.15729	37.37793	75.809326	-88.37601	0.7128408
1448009469533	0.8465423583984375	8.017974853515625	1.050933837890625	-6.657719079767434	0	-61.325073	-70.95795	34.077454	75.269714	-87.38837	1.5501828
1448009469573	0.9477081298828125	8.80230712890625	0.800994873046875	-6.558368153004478	0	-62.97455	-70.806885	31.378174	73.89844	-84.92298	3.3774745
1448009469613	0.0098419189453125	8.829681396484375	0.429656982421875	-6.762067146202629	0	-65.97443	-70.50781	28.677368	72.890656	-82.12414	5.03345
1448009469653	-0.4079132080078125	9.262908935546875	1.938812255859375	-6.521206875365074	0	-68.82477	-69.15741	27.928162	72.25659	-79.73248	6.8526845
1448009469694	0.5430450439453125	11.4468994140625	1.9947509765625	-6.066988331046883	0	-70.02411	-69.15741	27.027893	72.08417	-77.1578	9.491632
1448009469734	-1.9087371826171875	11.091033935546875	1.788848876953125	-6.494328025979326	0	-71.37451	-67.80701	28.527832	72.18759	-76.91204	10.819263
1448009469774	-1.2279510498046875	11.54925537109375	0.8712158203125	-6.461077598101969	0	-72.12372	-66.15753	30.627441	72.20862	-77.02379	11.152686
1448009469815	1.9296112060546875	13.1702880859375	2.22802734375	-5.669442327346172	0	-70.92438	-64.356995	34.677124	73.03955	-78.44008	11.063738
1448009469855	3.5185089111328125	11.4564208984375	0.291595458984375	-5.8993598911054	0	-65.67383	-63.30719	43.82782	74.99945	-84.419525	8.146963
1448009469896	5.1371612548828125	12.92034912109375	-1.008087158203125	-5.677505278662956	0	-58.624268	-60.006714	52.37732	76.819305	-90.40328	5.1794615
1448009469936	2.8162994384765625	11.495697021484375	1.5948486328125	-5.818261361823266	0	-50.074768	-58.657837	60.028076	80.33142	-94.848595	1.5953028
1448009469976	0.1300506591796875	10.541168212890625	-1.33538818359375	-6.751140838355623	0	-46.473694	-56.407166	61.528015	82.17383	-96.33015	-0.21060592
1448009470017	-2.4026641845703125	9.993682861328125	-1.73052978515625	-7.385755335094471	0	-42.12494	-54.75769	64.37836	82.96356	-99.47698	-4.3486643
1448009470057	-0.1639251708984375	7.087249755859375	1.065216064453125	-6.980199347329883	0	-40.473938	-54.307556	63.47809	78.815	-103.61388	-10.543022
1448009470097	0.2919158935546875	4.78662109375	-1.35205078125	-7.8761891095275365	0	-43.32428	-55.056763	60.627747	73.068726	-106.21784	-13.097663
1448009470138	-0.0222930908203125	4.145111083984375	-2.281585693359375	-8.449679847668003	0	-46.17462	-56.25763	57.32727	67.39142	-108.05345	-14.476957
1448009470178	-0.7423553466796875	3.158447265625	-2.9754638671875	NaN	0	-47.97516	-57.606506	55.677795	65.08368	-108.33304	-14.865465
1448009470219	-1.7004547119140625	5.5673828125	-4.321563720703125	NaN	0	-52.174377	-61.80725	51.17798	61.242035	-106.07522	-14.030555
1448009470259	-1.4314727783203125	11.64923095703125	-5.2415771484375	-7.575864464291332	0	-59.223938	-59.55658	47.877502	58.8407	-102.16392	-10.938544
1448009470300	-3.5238189697265625	11.576629638671875	-5.25823974609375	-8.134902981144142	0	-61.624146	-57.157898	46.977234	57.403656	-102.83077	-9.059377
1448009470340	-4.2676849365234375	7.525238037109375	-8.32177734375	NaN	0	-60.723877	-57.75757	47.277832	56.224243	-104.09629	-10.083959
1448009470381	7.3021087646484375	12.105072021484375	1.565093994140625	-5.227050373642246	0	-58.624268	-57.606506	47.128296	57.626312	-102.925674	-11.602553
1448009470421	-0.3281707763671875	5.011566162109375	-1.2425537109375	-7.951649414457439	0	-56.375122	-57.606506	48.1781	60.267456	-100.71389	-11.063007
1448009470461	-1.0506134033203125	10.21624755859375	2.808837890625	-6.346184989354826	0	-55.474854	-54.75769	50.128174	63.438965	-98.41153	-9.668431
1448009470502	0.4514007568359375	10.945831298828125	1.469879150390625	-6.219524421474411	0	-56.974792	-54.307556	48.327637	65.74869	-94.8919	-6.5496016
1448009470543	-0.5328826904296875	8.848724365234375	-1.355621337890625	-7.16837704943004	0	-58.773804	-52.957153	46.67816	65.99597	-93.74486	-5.2417884
1448009470583	1.5249481201171875	9.1522216796875	3.0706787109375	-6.0987908745537895	0	-59.375	-52.207947	45.32776	67.3418	-90.30833	-2.017703
1448009470624	-0.8161468505859375	7.679962158203125	0.084503173828125	-7.170633672171567	0	-62.97455	-51.30768	42.92755	65.658936	-88.85315	-0.40650553
1448009470664	0.9941253662109375	8.36669921875	1.26397705078125	-6.547029225228851	0	-65.52429	-49.357605	41.278076	65.30853	-87.16232	1.1070445
1448009470704	-0.5043182373046875	9.17364501953125	0.60699462890625	-6.76089459547828	0	-66.874695	-50.10681	39.6286	64.787476	-84.98981	2.5620604
1448009470745	-0.8316192626953125	9.179595947265625	-0.7283935546875	-7.046240760719211	0	-67.77496	-49.80774	38.127136	64.598755	-83.795364	3.1756864
1448009470785	-0.6328582763671875	9.074859619140625	1.61151123046875	-6.635872548256128	0	-70.02411	-47.857666	36.927795	63.98053	-80.42388	5.686616
1448009470826	0.9048614501953125	10.741119384765625	1.7138671875	-6.151487413162087	0	-71.224976	-46.957397	36.17859	63.74991	-78.69713	7.4363074
1448009470867	-0.6173858642578125	10.89703369140625	2.6136474609375	-6.215876495177338	0	-72.42432	-45.75653	37.07733	64.02667	-78.144455	8.848868
1448009470908	-0.5662078857421875	11.56829833984375	0.336822509765625	-6.439269757230932	0	-72.87445	-43.806458	38.427734	64.480774	-78.23668	9.442445
1448009470948	0.1193389892578125	12.203857421875	2.13519287109375	-6.004181127462866	0	-71.97418	-43.35785	39.927673	65.9375	-79.83909	9.480269
1448009470988	0.9227142333984375	11.062469482421875	2.067352294921875	-6.057928767317385	0	-67.9245	-39.907837	47.277832	67.99646	-83.91982	8.360795
1448009471029	3.8065338134765625	11.981292724609375	-1.572235107421875	-6.036243063228089	0	-63.723755	-37.657166	52.078247	69.99127	-90.32194	5.56295
1448009471069	3.1590728759765625	14.252166748046875	0.034515380859375	-5.6297884164014755	0	-58.325195	-35.10742	55.677795	72.1586	-95.867065	1.7634883
1448009471110	0.0050811767578125	11.93011474609375	-1.848358154296875	-6.630621761951966	0	-52.02484	-36.457825	58.528137	76.77188	-98.72502	-2.1231072
1448009471150	-1.7349700927734375	9.410491943359375	-1.88763427734375	-7.906953233647354	0	-48.8739	-38.256836	57.478333	78.58966	-100.889244	-6.7832975
1448009471191	-0.1151275634765625	6.608795166015625	2.332763671875	-6.8356689549546825	0	-48.8739	-42.30652	52.078247	74.89429	-104.45534	-12.757231
1448009471231	2.1831207275390625	4.56524658203125	-1.5186767578125	-7.519748331929284	0	-50.37384	-43.507385	49.227905	69.38843	-107.287865	-14.485226
1448009471271	0.4954376220703125	3.74639892578125	-3.419403076171875	-8.899718821631142	0	-51.42517	-45.45746	44.72809	66.37738	-108.65479	-14.992007
1448009471311	-0.4031524658203125	3.957061767578125	-2.388702392578125	-8.727152498182663	0	-52.774048	-48.457336	40.977478	62.010223	-109.6145	-15.68766
1448009471352	-1.5005035400390625	5.576904296875	-3.664581298828125	-9.16486839098591	0	-56.22406	-50.706482	35.12726	60.303436	-106.61864	-14.448832
1448009471392	-1.0006256103515625	12.51568603515625	-5.580780029296875	-7.370562152283382	0	-60.273743	-49.50714	31.52771	61.336487	-103.00184	-11.144631
1448009471432	-6.7992095947265625	20.693450927734375	-2.085205078125	-6.370172166495735	0	-61.624146	-48.757935	30.027771	60.304382	-102.15931	-8.552433
1448009471473	-6.7385101318359375	6.1910400390625	-6.89593505859375	NaN	0	-59.375	-49.057007	29.577637	59.812042	-104.167915	-10.460495
1448009471513	-2.6799774169921875	10.39715576171875	-3.7943115234375	-7.825977163292046	0	-56.82373	-50.257874	28.077698	59.01352	-105.12755	-12.158201
1448009471553	3.8386688232421875	14.371185302734375	5.493896484375	-4.937950227182944	0	-55.174255	-51.60675	27.027893	60.714874	-103.32785	-12.04342
1448009471594	-0.9054107666015625	6.444549560546875	-5.902130126953125	NaN	0	-54.42505	-49.656677	24.627686	64.39447	-99.27627	-9.177739
1448009471634	2.6984710693359375	7.424072265625	0.6474609375	-6.5248315327767346	0	-53.823853	-48.606873	24.328613	67.546326	-97.6906	-7.7703595
1448009471674	1.3023834228515625	10.68280029296875	3.91571044921875	-5.473977041086823	0	-54.12445	-48.15674	23.277283	70.042694	-95.843475	-6.1953096
1448009471714	-2.6894989013671875	10.043670654296875	1.486541748046875	-6.833266264783489	0	-54.273987	-47.106934	22.227478	76.05612	-90.10078	-2.3234901
1448009471755	0.8346405029296875	7.632354736328125	0.805755615234375	-6.761480814402795	0	-54.72412	-45.15686	18.327332	76.72244	-88.433846	-0.7867942
1448009471795	0.4073638916015625	7.52166748046875	0.522491455078125	-6.899449706817957	0	-54.875183	-43.65692	17.428589	76.966125	-86.962616	0.6130366
1448009471835	-0.4186248779296875	9.55926513671875	1.612701416015625	-6.527371176815395	0	-54.574585	-43.95752	16.377258	78.201294	-84.80795	2.1735084
1448009471876	-1.8837432861328125	9.2188720703125	-0.714111328125	-7.233466218780164	0	-55.32379	-42.607117	14.578247	78.6951	-82.87512	3.5068016
1448009471916	-1.2910308837890625	8.947509765625	1.4044189453125	-6.767153426422366	0	-55.32379	-42.45758	12.77771	79.181885	-81.25445	4.932088
1448009471957	0.1312408447265625	9.803253173828125	1.80908203125	-6.37970985734811	0	-56.074524	-40.057373	10.227966	79.22424	-78.732414	7.3248634
1448009471997	-0.2960357666015625	10.491180419921875	2.388702392578125	-6.25922814947482	0	-55.474854	-38.1073	8.877563	79.51135	-78.153885	8.779368
1448009472038	-1.0875091552734375	11.013671875	1.53533935546875	-6.421115976230974	0	-55.02472	-36.906433	8.578491	79.69241	-77.943726	9.197754
1448009472079	0.4573516845703125	12.293121337890625	2.01141357421875	-5.9644799346350865	0	-54.12445	-35.557556	8.128357	80.334625	-78.27526	9.433951
1448009472119	0.5823211669921875	11.693267822265625	2.681488037109375	-5.939161955717042	0	-52.474976	-36.756897	9.327698	82.89728	-82.68588	8.126521
1448009472159	4.5444488525390625	11.65875244140625	-1.891204833984375	-6.023480062704733	0	-47.525024	-36.306763	13.37738	84.66263	-88.74325	5.4804564
1448009472200	3.3804473876953125	14.38427734375	0.541534423828125	-5.528018558064666	0	-42.12494	-37.356567	16.677856	86.30112	-94.704834	1.7393956
1448009472240	3.2364349365234375	12.6846923828125	1.5234375	-5.629930894200985	0	-40.473938	-36.457825	17.877197	88.074615	-96.56027	-0.12874064
1448009472280	-2.4859771728515625	9.481903076171875	-1.496063232421875	-7.461421398933881	0	-34.77478	-39.60724	19.377136	92.37503	-100.515335	-6.7385163
1448009472320	-0.9887237548828125	7.932281494140625	0.351104736328125	-7.1057367166059775	0	-33.27484	-40.507507	18.02826	90.53375	-103.413734	-10.953807
1448009472361	-0.2639007568359375	5.616180419921875	-0.010711669921875	-7.495416754741402	0	-32.374573	-42.30652	15.478516	86.39978	-105.921936	-13.815921
1448009472401	-0.1401214599609375	3.52264404296875	-2.21136474609375	-8.724399539404061	0	-31.173706	-43.65692	12.77771	80.744446	-108.3317	-15.257235
1448009472441	-0.2091522216796875	3.673797607421875	-2.188751220703125	-8.677045147396965	0	-31.173706	-43.65692	10.528564	78.28323	-109.00373	-15.666587
1448009472481	-1.4362335205078125	3.392913818359375	-3.962127685546875	NaN	0	-31.474304	-45.15686	4.977417	74.51904	-107.51549	-15.502075
1448009472521	-0.9042205810546875	8.946319580078125	-2.6326904296875	-7.4807864715038015	0	-32.225037	-43.95752	2.8778076	74.035065	-103.9015	-13.208527
1448009472562	-3.3750457763671875	21.383758544921875	-5.280853271484375	-6.238987423350132	0	-34.62372	-41.85791	-2.3727417	73.000885	-101.75516	-9.712361
